Time,Gx,Gy,Gz,Ax,Ay,Az,Mx,My,Mz,Latitude,Longitude,Knots
2022-11-05 12:25:42.481962,0.004399684156069039,0.0007317656499247049,0.002813434393188776,-0.0007976075333333311,0.0041475591733333705,9.82156530923333,52.2,39.5,-131.9,0,0,0
2022-11-05 12:25:42.491759,-0.0014635312998494115,0.005640504171158758,0.002949788241000833,0.0015952150666666692,-0.010209376426666639,9.79045861543333,52.2,38.0,-133.0,0,0,0
2022-11-05 12:25:42.501407,-0.003917900560466438,-0.002131665154128491,0.0018589574585043769,-0.017547365733333327,0.0017547365733333598,9.81438684143333,53.300000000000004,38.7,-133.1,0,0,0
2022-11-05 12:25:42.511008,-0.0020089466910976402,4.999641086442068e-05,0.007585819066610771,-0.017547365733333327,-0.0006380860266665955,9.82635095443333,51.7,38.7,-132.6,0,0,0
2022-11-05 12:25:42.520623,-0.0007817620607891273,-0.0004954189803838081,0.0014498959150682058,0.0015952150666666692,-0.005423731226666617,9.811994018833332,53.1,38.1,-132.3,0,0,0
2022-11-05 12:25:42.530210,-0.003099777473594096,-0.0033588497844370038,-0.002640719519293504,-0.015154543133333323,-0.01260219902666665,9.79045861543333,52.900000000000006,38.7,-133.0,0,0,0
2022-11-05 12:25:42.539808,-0.00037270051735295573,-0.0045860344147455176,-0.0003227041064885346,-0.012761720533333333,-0.01260219902666665,9.819172486633331,52.5,37.800000000000004,-131.9,0,0,0
2022-11-05 12:25:42.549430,0.0011271918085796711,0.0005954118021126494,-0.0015498887367970476,0.00398803766666667,-0.0006380860266665955,9.823958131833331,51.7,38.800000000000004,-133.1,0,0,0
2022-11-05 12:25:42.562987,0.0003090687217073289,-0.004176972871309346,0.001040834371632035,0.0015952150666666692,-0.010209376426666639,9.80242272843333,52.300000000000004,37.6,-132.3,0,0,0
2022-11-05 12:25:42.572595,0.001263545656391728,-0.0026770805453767196,0.003904265175685232,-0.01036889793333333,-0.010209376426666639,9.81438684143333,53.0,39.1,-132.6,0,0,0
2022-11-05 12:25:42.582849,-0.00023634666954089854,-0.0019953113063164336,0.0004954189803838068,-0.01036889793333333,0.008933204373333392,9.81677966403333,52.5,38.800000000000004,-132.3,0,0,0
2022-11-05 12:25:42.592455,0.003172499525760526,-0.0025407266975646624,0.0017226036106923201,-0.01036889793333333,-0.005423731226666617,9.78328014763333,52.1,37.9,-131.1,0,0,0
2022-11-05 12:25:42.602051,0.005081453395129324,0.001958950280233218,0.0011771882194440918,-0.01036889793333333,-0.01260219902666665,9.79763708323333,52.7,39.2,-131.4,0,0,0
2022-11-05 12:25:42.611657,-0.00037270051735295573,-0.0025407266975646624,-0.0010044733455488197,-0.01994018833333333,-0.010209376426666639,9.81438684143333,52.800000000000004,39.5,-132.9,0,0,0
2022-11-05 12:25:42.621241,-0.00037270051735295573,-0.0045860344147455176,-0.0014135348889849912,-0.022333010933333328,0.008933204373333392,9.804815551033329,54.2,38.800000000000004,-134.1,0,0,0
2022-11-05 12:25:42.634859,-0.0035088390170302667,-0.0007681266760079207,0.002540726697564662,-0.012761720533333333,-0.0030309086266666063,9.811994018833332,52.0,38.800000000000004,-131.6,0,0,0
2022-11-05 12:25:42.645126,-0.003099777473594096,-0.0011771882194440923,0.0014498959150682058,-0.0055832527333333284,-0.014995021626666605,9.80960119623333,52.400000000000006,37.9,-131.70000000000002,0,0,0
2022-11-05 12:25:42.655207,-0.0010544697564132408,0.006458627258031098,0.003904265175685232,-0.012761720533333333,0.0041475591733333705,9.804815551033329,52.400000000000006,37.9,-131.70000000000002,0,0,0
2022-11-05 12:25:42.665098,-0.0054177928863990655,0.0014135348889849908,0.0018589574585043769,-0.007976075333333332,-0.014995021626666605,9.83592224483333,51.800000000000004,38.900000000000006,-133.0,0,0,0
2022-11-05 12:25:42.675137,-0.005008731342962894,-0.0037679113278731753,0.0017226036106923201,-0.0007976075333333311,-0.010209376426666639,9.80960119623333,52.400000000000006,39.300000000000004,-133.20000000000002,0,0,0
2022-11-05 12:25:42.684762,-0.002554362082345868,0.0026407195192935037,0.003767911327873175,0.00638086026666667,-0.0030309086266666063,9.804815551033329,51.7,37.7,-132.20000000000002,0,0,0
2022-11-05 12:25:42.694408,-0.0028270697779699816,0.006049565714594928,0.003495203632249061,0.013559328066666668,0.011326026973333403,9.82156530923333,52.0,38.400000000000006,-131.8,0,0,0
2022-11-05 12:25:42.704024,-0.0028270697779699816,-0.0026770805453767196,0.0026770805453767187,0.0015952150666666692,-0.007816553826666628,9.811994018833332,52.0,38.1,-131.8,0,0,0
2022-11-05 12:25:42.713642,-0.0014635312998494115,-0.0026770805453767196,0.0017226036106923201,0.0015952150666666692,-0.007816553826666628,9.80960119623333,53.1,38.400000000000006,-130.8,0,0,0
2022-11-05 12:25:42.723228,-0.006372269821083464,0.0074131041927155,-0.003186134910541732,0.00398803766666667,0.008933204373333392,9.83592224483333,53.5,38.7,-133.70000000000002,0,0,0
2022-11-05 12:25:42.732811,0.003581561069196697,-8.63574369476365e-05,0.001040834371632035,-0.0031904301333333315,0.006540381773333381,9.81438684143333,52.300000000000004,38.7,-133.9,0,0,0
2022-11-05 12:25:42.742411,0.0003090687217073289,0.004413319540850245,-0.0022316579758573326,-0.0007976075333333311,0.0041475591733333705,9.82635095443333,51.800000000000004,38.300000000000004,-133.0,0,0,0
2022-11-05 12:25:42.751982,-0.0028270697779699816,-0.0004954189803838081,0.000631772828195864,-0.012761720533333333,-0.014995021626666605,9.80242272843333,52.5,38.300000000000004,-133.70000000000002,0,0,0
2022-11-05 12:25:42.761660,-0.0006454082129770701,-0.002131665154128491,-0.000595411802112649,0.00398803766666667,-0.014995021626666605,9.80960119623333,53.400000000000006,38.7,-132.8,0,0,0
2022-11-05 12:25:42.771248,-0.003236131321406153,0.005367796475534644,-0.0010044733455488197,0.008773682866666667,-0.0030309086266666063,9.79524426063333,53.5,39.1,-132.9,0,0,0
2022-11-05 12:25:42.780819,0.0004454225695193861,0.0035951964539779023,0.0009044805238199779,-0.0031904301333333315,-0.005423731226666617,9.78328014763333,53.0,38.1,-131.6,0,0,0
2022-11-05 12:25:42.790416,-0.010053823712009004,-0.002131665154128491,0.000631772828195864,0.0015952150666666692,0.011326026973333403,9.79524426063333,53.2,38.7,-133.5,0,0,0
2022-11-05 12:25:42.799998,-0.009372054472948716,0.0010044733455488192,-0.0027770733671055614,-0.0007976075333333311,-0.010209376426666639,9.804815551033329,51.900000000000006,38.900000000000006,-134.0,0,0,0
2022-11-05 12:25:42.809594,-0.004599669799526722,0.00018635025867647786,8.635743694763607e-05,-0.007976075333333332,0.0017547365733333598,9.807208373633332,51.7,39.800000000000004,-130.8,0,0,0
2022-11-05 12:25:42.819165,-0.005690500582023178,-0.0009044805238199779,-0.003186134910541732,0.00398803766666667,0.0017547365733333598,9.80002990583333,52.2,39.0,-132.8,0,0,0
2022-11-05 12:25:42.828734,-0.00473602364733878,-0.0033588497844370038,-0.0003227041064885346,0.00398803766666667,0.0017547365733333598,9.80002990583333,52.2,38.7,-132.9,0,0,0
2022-11-05 12:25:42.838316,0.0030361456779484687,0.007685811888339611,0.001040834371632035,-0.012761720533333333,-0.010209376426666639,9.82156530923333,51.800000000000004,38.2,-132.3,0,0,0
2022-11-05 12:25:42.847911,-0.002554362082345868,-0.001722603610692321,0.001313542067256149,-0.01036889793333333,-0.007816553826666628,9.811994018833332,52.6,38.2,-131.70000000000002,0,0,0
2022-11-05 12:25:42.857795,-0.004599669799526722,-0.0015862497628802638,8.635743694763607e-05,-0.01994018833333333,-0.0006380860266665955,9.81438684143333,52.300000000000004,38.400000000000006,-133.4,0,0,0
2022-11-05 12:25:42.867397,-0.0010544697564132408,0.002777073367105561,0.000631772828195864,0.0015952150666666692,-0.01260219902666665,9.811994018833332,51.800000000000004,39.300000000000004,-131.8,0,0,0
2022-11-05 12:25:42.876972,0.00208166874326407,0.0038679041496020167,-0.0027770733671055614,-0.017547365733333327,-0.01260219902666665,9.807208373633332,52.5,39.400000000000006,-132.70000000000002,0,0,0
2022-11-05 12:25:42.886568,-0.008281223690452262,-8.63574369476365e-05,-0.0007317656499247062,0.0015952150666666692,-0.0030309086266666063,9.79524426063333,52.5,39.400000000000006,-132.70000000000002,0,0,0
2022-11-05 12:25:42.896141,-0.0017362389954735259,-0.0026770805453767196,0.0004954189803838068,0.00638086026666667,-0.010209376426666639,9.80242272843333,52.400000000000006,39.5,-132.3,0,0,0
2022-11-05 12:25:42.905891,-0.008144869842640203,-0.0003590651325717509,-0.0010044733455488197,0.0015952150666666692,-0.010209376426666639,9.804815551033329,51.800000000000004,37.9,-132.9,0,0,0
2022-11-05 12:25:42.915495,0.004399684156069039,0.0010044733455488192,-0.001277181041172934,-0.02711865613333333,-0.0030309086266666063,9.80960119623333,53.0,38.900000000000006,-131.70000000000002,0,0,0
2022-11-05 12:25:42.925091,-0.0006454082129770701,-0.004176972871309346,-0.0003227041064885346,0.0015952150666666692,0.0017547365733333598,9.80960119623333,52.800000000000004,38.400000000000006,-132.20000000000002,0,0,0
2022-11-05 12:25:42.934685,-0.0006454082129770701,-0.004176972871309346,0.003904265175685232,-0.0055832527333333284,-0.01260219902666665,9.79763708323333,52.6,38.6,-131.8,0,0,0
2022-11-05 12:25:42.944250,0.001399899504203785,-0.001722603610692321,0.003904265175685232,-0.0007976075333333311,-0.0030309086266666063,9.807208373633332,52.5,37.800000000000004,-131.0,0,0,0
2022-11-05 12:25:42.953814,-0.0014635312998494115,0.0038679041496020167,0.002949788241000833,-0.0031904301333333315,-0.005423731226666617,9.82635095443333,53.2,37.800000000000004,-132.8,0,0,0
2022-11-05 12:25:42.963373,0.002627084134512298,0.0026407195192935037,-0.000595411802112649,0.015952150666666668,0.006540381773333381,9.823958131833331,52.6,38.0,-133.1,0,0,0
2022-11-05 12:25:42.972951,-0.005281439038587008,-0.0013135420672561494,-0.0022316579758573326,0.0015952150666666692,0.0041475591733333705,9.80002990583333,51.900000000000006,38.300000000000004,-132.8,0,0,0
2022-11-05 12:25:42.982537,-0.00023634666954089854,-0.0030861420888128903,0.00022271128475969282,0.013559328066666668,-0.005423731226666617,9.80002990583333,52.7,38.300000000000004,-132.3,0,0,0
2022-11-05 12:25:42.992100,0.0061722841776257805,0.0010044733455488192,-0.0016862425846091047,0.008773682866666667,0.013718849573333414,9.840707890033329,52.1,37.800000000000004,-133.3,0,0,0
2022-11-05 12:25:43.001663,0.0004454225695193861,-0.006904049827550486,-0.0027770733671055614,0.011166505466666667,-0.005423731226666617,9.807208373633332,52.1,37.300000000000004,-131.70000000000002,0,0,0
2022-11-05 12:25:43.011226,-0.0028270697779699816,-0.004722388262557574,0.00022271128475969282,0.00398803766666667,-0.007816553826666628,9.80002990583333,52.300000000000004,37.6,-132.3,0,0,0
2022-11-05 12:25:43.020784,-0.002418008234533811,0.0010044733455488192,0.0004954189803838068,-0.0055832527333333284,0.0017547365733333598,9.78328014763333,52.2,38.0,-133.20000000000002,0,0,0
2022-11-05 12:25:43.030362,0.0004454225695193861,-0.0030861420888128903,-0.0001863502586764783,-0.0055832527333333284,-0.014995021626666605,9.811994018833332,52.800000000000004,37.800000000000004,-132.70000000000002,0,0,0
2022-11-05 12:25:43.039930,-0.006508623668895521,-0.0009044805238199779,-0.003049781062729675,-0.012761720533333333,-0.014995021626666605,9.811994018833332,53.300000000000004,38.5,-133.9,0,0,0
2022-11-05 12:25:43.049796,0.0015362533520158418,0.003458842606165845,-0.003186134910541732,-0.015154543133333323,-0.0006380860266665955,9.788065792833331,52.7,38.1,-132.1,0,0,0
2022-11-05 12:25:43.059363,-0.007872162147016092,-0.002404372849752605,-0.0014135348889849912,-0.0007976075333333311,-0.005423731226666617,9.80242272843333,51.7,39.0,-133.0,0,0,0
2022-11-05 12:25:43.068932,-0.00473602364733878,-0.002949788241000833,0.0004954189803838068,-0.007976075333333332,-0.010209376426666639,9.83352942223333,53.5,38.0,-132.20000000000002,0,0,0
2022-11-05 12:25:43.078515,-0.0006454082129770701,0.0008681194977367621,-0.00236801182366939,-0.0031904301333333315,-0.007816553826666628,9.82874377703333,53.800000000000004,39.1,-133.3,0,0,0
2022-11-05 12:25:43.088074,0.0007181302651435,0.00018635025867647786,-0.004004257997414074,-0.015154543133333323,-0.007816553826666628,9.82874377703333,52.0,37.2,-132.70000000000002,0,0,0
2022-11-05 12:25:43.097632,-0.0007817620607891273,-0.0009044805238199779,-0.0011408271933608769,0.011166505466666667,-0.0006380860266665955,9.80242272843333,52.0,37.2,-132.70000000000002,0,0,0
2022-11-05 12:25:43.107200,0.002627084134512298,-0.0013135420672561494,-0.0001863502586764783,0.013559328066666668,-0.014995021626666605,9.80002990583333,53.1,37.2,-132.20000000000002,0,0,0
2022-11-05 12:25:43.116760,-0.0028270697779699816,0.003458842606165845,-0.0014135348889849912,0.00398803766666667,0.011326026973333403,9.81438684143333,53.7,38.7,-132.4,0,0,0
2022-11-05 12:25:43.146914,-0.0028270697779699816,0.004276965693038188,0.002268019001940548,0.00398803766666667,-0.0006380860266665955,9.804815551033329,53.2,38.900000000000006,-133.0,0,0,0
2022-11-05 12:25:43.156543,-0.001872592843285583,-0.0004954189803838081,-0.0007317656499247062,-0.01036889793333333,-0.01260219902666665,9.84310071263333,53.6,38.800000000000004,-131.5,0,0,0
2022-11-05 12:25:43.198397,0.003172499525760526,-0.0051314498059937454,-0.0003227041064885346,-0.01036889793333333,-0.019780666826666626,9.80002990583333,52.5,38.7,-131.9,0,0,0
2022-11-05 12:25:43.208033,-0.005281439038587008,0.0035951964539779023,0.002268019001940548,0.00398803766666667,-0.010209376426666639,9.80960119623333,53.400000000000006,37.7,-132.4,0,0,0
2022-11-05 12:25:43.217654,0.002627084134512298,-0.0003590651325717509,0.000631772828195864,-0.0055832527333333284,0.006540381773333381,9.82635095443333,52.5,38.7,-133.5,0,0,0
2022-11-05 12:25:43.227223,0.0018089610476399562,-0.0030861420888128903,-0.0003227041064885346,0.00638086026666667,-0.007816553826666628,9.81677966403333,52.6,38.6,-132.3,0,0,0
2022-11-05 12:25:43.236785,0.004945099547317267,-0.002949788241000833,0.0004954189803838068,-0.0031904301333333315,-0.01260219902666665,9.82874377703333,52.2,37.2,-133.4,0,0,0
2022-11-05 12:25:43.246372,-0.003236131321406153,0.004004257997414074,-0.0011408271933608769,-0.02711865613333333,-0.010209376426666639,9.823958131833331,51.6,38.300000000000004,-132.3,0,0,0
2022-11-05 12:25:43.255937,-0.012235485277001915,0.0026407195192935037,0.0014498959150682058,-0.007976075333333332,0.018504494773333324,9.81677966403333,52.0,38.2,-132.70000000000002,0,0,0
2022-11-05 12:25:43.265496,-0.0006454082129770701,-0.0030861420888128903,0.000631772828195864,-0.0055832527333333284,0.0017547365733333598,9.81438684143333,52.300000000000004,38.1,-132.4,0,0,0
2022-11-05 12:25:43.275081,-0.0035088390170302667,-0.0003590651325717509,0.0004954189803838068,-0.0031904301333333315,-0.005423731226666617,9.78088732503333,52.5,38.7,-132.0,0,0,0
2022-11-05 12:25:43.284944,-0.001872592843285583,0.0008681194977367621,-0.0007317656499247062,0.013559328066666668,-0.005423731226666617,9.82156530923333,53.0,37.800000000000004,-132.9,0,0,0
2022-11-05 12:25:43.294541,0.0004454225695193861,-0.0037679113278731753,-0.0003227041064885346,0.00398803766666667,-0.010209376426666639,9.80002990583333,51.800000000000004,38.300000000000004,-133.20000000000002,0,0,0
2022-11-05 12:25:43.304099,-0.003645192864842324,-0.004176972871309346,-0.003049781062729675,0.011166505466666667,-0.005423731226666617,9.81677966403333,51.800000000000004,38.300000000000004,-133.20000000000002,0,0,0
2022-11-05 12:25:43.313659,-0.004326962103902608,-0.007858526762234886,-0.0034588426061658455,-0.012761720533333333,-0.024566312026666648,9.79045861543333,52.800000000000004,37.7,-133.0,0,0,0
2022-11-05 12:25:43.323217,-0.00473602364733878,0.0016862425846091052,0.000631772828195864,0.00638086026666667,0.0017547365733333598,9.819172486633331,52.7,37.6,-133.20000000000002,0,0,0
2022-11-05 12:25:43.332776,0.002218022591076127,-0.001722603610692321,-0.0011408271933608769,-0.022333010933333328,-0.017387844226666616,9.78328014763333,52.400000000000006,39.0,-132.70000000000002,0,0,0
2022-11-05 12:25:43.342359,-0.003099777473594096,0.004822381084286415,0.0014498959150682058,-0.007976075333333332,-0.017387844226666616,9.80242272843333,52.5,38.6,-133.3,0,0,0
2022-11-05 12:25:43.351915,-0.00037270051735295573,0.00045905795430059224,0.003767911327873175,-0.007976075333333332,-0.017387844226666616,9.80242272843333,52.7,38.5,-133.3,0,0,0
2022-11-05 12:25:43.361474,0.003990622612632868,0.0031861349105417325,0.00035906513257175,-0.01994018833333333,-0.005423731226666617,9.83113659963333,53.300000000000004,38.300000000000004,-133.5,0,0,0
2022-11-05 12:25:43.371188,0.0011271918085796711,0.0016862425846091052,0.00308614208881289,-0.01036889793333333,-0.017387844226666616,9.811994018833332,52.6,39.0,-133.6,0,0,0
2022-11-05 12:25:43.380754,0.004399684156069039,-0.0002227112847596937,-0.00236801182366939,0.011166505466666667,-0.017387844226666616,9.804815551033329,51.7,39.1,-132.9,0,0,0
2022-11-05 12:25:43.390345,0.0004454225695193861,-0.0051314498059937454,-0.005504150323346701,-0.007976075333333332,-0.007816553826666628,9.807208373633332,53.5,38.900000000000006,-132.0,0,0,0
2022-11-05 12:25:43.399912,-0.0010544697564132408,0.005776858018970814,-0.004686027236474358,-0.01994018833333333,0.013718849573333414,9.83831506743333,52.6,39.400000000000006,-133.20000000000002,0,0,0
2022-11-05 12:25:43.409472,-0.0010544697564132408,0.005776858018970814,-0.003867904149602017,-0.0055832527333333284,-0.007816553826666628,9.81438684143333,52.6,39.400000000000006,-133.20000000000002,0,0,0
2022-11-05 12:25:43.419033,-0.0014635312998494115,-0.0019953113063164336,-0.003867904149602017,-0.015154543133333323,-0.01260219902666665,9.80002990583333,53.300000000000004,38.1,-133.3,0,0,0
2022-11-05 12:25:43.428610,-0.0054177928863990655,-0.0077221729144228285,-0.001958950280233219,-0.01994018833333333,0.006540381773333381,9.80002990583333,53.7,37.800000000000004,-132.3,0,0,0
2022-11-05 12:25:43.438170,-0.00023634666954089854,-0.009085711392543399,-0.0014135348889849912,-0.0031904301333333315,-0.014995021626666605,9.80002990583333,53.1,37.800000000000004,-132.6,0,0,0
2022-11-05 12:25:43.447762,0.004672391851693153,-0.0007681266760079207,-0.0027770733671055614,0.015952150666666668,-0.022173489426666637,9.788065792833331,53.1,39.800000000000004,-132.5,0,0,0
2022-11-05 12:25:43.457308,0.0003090687217073289,0.0030497810627296753,-0.0001863502586764783,0.00638086026666667,-0.007816553826666628,9.807208373633332,53.5,38.800000000000004,-133.20000000000002,0,0,0
2022-11-05 12:25:43.467143,0.0007181302651435,0.002095304128045275,-0.0011408271933608769,-0.007976075333333332,-0.01260219902666665,9.804815551033329,51.900000000000006,37.7,-131.9,0,0,0
2022-11-05 12:25:43.476702,0.0018089610476399562,0.0025043656714814466,-0.001822596432421162,-0.024725833533333325,-0.017387844226666616,9.804815551033329,53.5,38.5,-133.1,0,0,0
2022-11-05 12:25:43.486669,-0.00037270051735295573,-0.004995095958181688,0.002949788241000833,-0.02711865613333333,0.006540381773333381,9.811994018833332,53.800000000000004,38.6,-131.8,0,0,0
2022-11-05 12:25:43.496256,0.0018089610476399562,-0.002404372849752605,-0.00236801182366939,-0.015154543133333323,0.0017547365733333598,9.79045861543333,52.6,37.7,-131.70000000000002,0,0,0
2022-11-05 12:25:43.505813,-0.0035088390170302667,-0.0033588497844370038,-0.002640719519293504,-0.015154543133333323,-0.0006380860266665955,9.807208373633332,52.7,38.5,-132.4,0,0,0
2022-11-05 12:25:43.515371,-0.002418008234533811,0.0012771810411729336,-0.0022316579758573326,-0.0007976075333333311,-0.0030309086266666063,9.81677966403333,52.900000000000006,38.300000000000004,-133.1,0,0,0
2022-11-05 12:25:43.524947,-0.006372269821083464,-0.0025407266975646624,-0.004276965693038188,0.008773682866666667,-0.024566312026666648,9.804815551033329,51.900000000000006,37.9,-131.70000000000002,0,0,0
2022-11-05 12:25:43.534548,-0.0013271774520373552,-0.005267803653805802,0.0026770805453767187,0.015952150666666668,-0.017387844226666616,9.807208373633332,53.6,38.0,-131.4,0,0,0
2022-11-05 12:25:43.544112,-0.0015998851476614687,0.0025043656714814466,0.005267803653805802,-0.007976075333333332,-0.005423731226666617,9.80242272843333,52.400000000000006,38.300000000000004,-132.9,0,0,0
2022-11-05 12:25:43.553673,-0.002418008234533811,0.00045905795430059224,0.0018589574585043769,-0.007976075333333332,0.008933204373333392,9.79524426063333,52.800000000000004,38.900000000000006,-133.0,0,0,0
2022-11-05 12:25:43.563231,-0.00037270051735295573,-0.002404372849752605,0.001313542067256149,-0.01036889793333333,0.008933204373333392,9.79524426063333,52.6,38.2,-132.4,0,0,0
2022-11-05 12:25:43.572776,-0.0007817620607891273,-0.0004954189803838081,0.00022271128475969282,-0.01994018833333333,0.0017547365733333598,9.807208373633332,53.300000000000004,38.800000000000004,-132.0,0,0,0
2022-11-05 12:25:43.582347,-0.0054177928863990655,0.005640504171158758,-0.0007317656499247062,-0.03908276913333333,-0.0006380860266665955,9.78328014763333,52.5,37.9,-132.6,0,0,0
2022-11-05 12:25:43.591890,0.002490730286700241,0.0012771810411729336,0.000631772828195864,-0.017547365733333327,-0.005423731226666617,9.81438684143333,53.0,38.400000000000006,-132.20000000000002,0,0,0
2022-11-05 12:25:43.601441,0.004399684156069039,0.004549673388662301,-0.0007317656499247062,0.00638086026666667,-0.01260219902666665,9.80242272843333,52.900000000000006,40.2,-131.4,0,0,0
2022-11-05 12:25:43.610982,0.005354161090753437,0.004140611845226131,0.002540726697564662,-0.007976075333333332,-0.007816553826666628,9.811994018833332,52.900000000000006,40.2,-131.4,0,0,0
2022-11-05 12:25:43.620519,-0.00023634666954089854,0.005231442627722587,0.0004954189803838068,-0.015154543133333323,-0.0030309086266666063,9.79285143803333,53.1,37.2,-132.5,0,0,0
2022-11-05 12:25:43.630056,0.008353945742618692,-0.0032224959366249474,0.0007681266760079211,-0.015154543133333323,-0.014995021626666605,9.811994018833332,52.6,38.6,-131.70000000000002,0,0,0
2022-11-05 12:25:43.639591,-0.0028270697779699816,-0.008131234457858998,0.001040834371632035,-0.01994018833333333,0.0041475591733333705,9.80960119623333,52.7,38.0,-132.1,0,0,0
2022-11-05 12:25:43.649456,-0.005281439038587008,0.0014135348889849908,-0.000595411802112649,-0.03190430133333333,0.006540381773333381,9.81438684143333,52.800000000000004,38.1,-133.20000000000002,0,0,0
2022-11-05 12:25:43.659017,-0.00037270051735295573,0.004413319540850245,-0.0010044733455488197,-0.0007976075333333311,0.018504494773333324,9.80960119623333,52.7,38.800000000000004,-132.1,0,0,0
2022-11-05 12:25:43.668560,-0.007599454451391977,-0.004313326719121403,-0.003186134910541732,-0.0031904301333333315,-0.010209376426666639,9.823958131833331,53.1,39.1,-132.6,0,0,0
2022-11-05 12:25:43.678097,0.006035930329813723,-0.0015862497628802638,-0.001277181041172934,0.013559328066666668,-0.01260219902666665,9.804815551033329,52.0,37.7,-134.6,0,0,0
2022-11-05 12:25:43.687631,0.004945099547317267,-0.0032224959366249474,-0.0015498887367970476,0.011166505466666667,0.0017547365733333598,9.788065792833331,52.2,38.6,-131.8,0,0,0
2022-11-05 12:25:43.697197,-0.001872592843285583,0.0038679041496020167,-0.0007317656499247062,-0.0055832527333333284,-0.005423731226666617,9.811994018833332,53.0,37.1,-133.3,0,0,0
2022-11-05 12:25:43.706740,-0.003099777473594096,0.0018225964324211624,0.002131665154128491,-0.03190430133333333,-0.01260219902666665,9.79763708323333,52.2,37.800000000000004,-132.4,0,0,0
2022-11-05 12:25:43.716279,-0.003099777473594096,-0.0025407266975646624,0.001040834371632035,-0.024725833533333325,0.011326026973333403,9.79763708323333,53.0,38.7,-130.6,0,0,0
2022-11-05 12:25:43.725825,0.0018089610476399562,-0.0025407266975646624,0.001040834371632035,-0.0007976075333333311,-0.0030309086266666063,9.79524426063333,52.800000000000004,38.5,-132.1,0,0,0
2022-11-05 12:25:43.735380,-0.0017362389954735259,0.004276965693038188,-0.003049781062729675,-0.012761720533333333,0.0017547365733333598,9.82635095443333,52.400000000000006,38.6,-133.0,0,0,0
2022-11-05 12:25:43.744938,0.007808530351370464,0.0005954118021126494,-0.002504365671481447,-0.012761720533333333,0.0041475591733333705,9.82874377703333,53.900000000000006,37.6,-132.3,0,0,0
2022-11-05 12:25:43.754507,-0.003645192864842324,-0.0007681266760079207,-0.002640719519293504,0.008773682866666667,0.0041475591733333705,9.82874377703333,52.6,37.9,-131.9,0,0,0
2022-11-05 12:25:43.764054,-0.008553931386076376,-0.003495203632249061,-0.0014135348889849912,0.030309086266666667,0.013718849573333414,9.80002990583333,53.2,37.9,-131.6,0,0,0
2022-11-05 12:25:43.773621,-0.007599454451391977,-0.0039042651756852325,0.002268019001940548,0.027916263666666667,0.0017547365733333598,9.788065792833331,53.2,37.6,-132.9,0,0,0
2022-11-05 12:25:43.783423,-0.005281439038587008,-0.0030861420888128903,0.001040834371632035,0.00398803766666667,-0.007816553826666628,9.81438684143333,52.7,38.300000000000004,-133.6,0,0,0
2022-11-05 12:25:43.793229,0.002627084134512298,-0.001722603610692321,-0.0003227041064885346,-0.0007976075333333311,-0.0030309086266666063,9.79524426063333,53.0,36.9,-132.3,0,0,0
2022-11-05 12:25:43.802809,0.001399899504203785,-0.005676865197241973,0.001313542067256149,-0.024725833533333325,-0.0006380860266665955,9.819172486633331,52.1,36.4,-132.5,0,0,0
2022-11-05 12:25:43.812371,-0.0013271774520373552,-0.0015862497628802638,0.0004954189803838068,-0.04386841433333332,0.006540381773333381,9.81438684143333,52.1,36.4,-132.5,0,0,0
2022-11-05 12:25:43.821927,0.0011271918085796711,-8.63574369476365e-05,0.00022271128475969282,-0.01994018833333333,-0.005423731226666617,9.77849450243333,53.300000000000004,38.400000000000006,-131.4,0,0,0
2022-11-05 12:25:43.831490,-0.0035088390170302667,0.0025043656714814466,-0.0014135348889849912,0.00398803766666667,-0.005423731226666617,9.82874377703333,53.7,38.900000000000006,-131.70000000000002,0,0,0
2022-11-05 12:25:43.842731,0.005081453395129324,-0.004858742110369631,-0.0027770733671055614,0.011166505466666667,0.006540381773333381,9.84310071263333,52.400000000000006,39.5,-133.1,0,0,0
2022-11-05 12:25:43.852351,-0.006508623668895521,-0.0013135420672561494,-0.0010044733455488197,0.013559328066666668,-0.0030309086266666063,9.81677966403333,53.800000000000004,38.300000000000004,-132.5,0,0,0
2022-11-05 12:25:43.861912,-0.012235485277001915,-0.0013135420672561494,-0.000595411802112649,0.00398803766666667,0.013718849573333414,9.81438684143333,52.1,39.1,-132.1,0,0,0
2022-11-05 12:25:43.871490,-0.0021453005389096965,0.0005954118021126494,0.001040834371632035,0.015952150666666668,-0.007816553826666628,9.845493535233329,53.6,37.9,-131.0,0,0,0
2022-11-05 12:25:43.881039,-0.004326962103902608,0.00045905795430059224,-0.0027770733671055614,-0.029511478733333325,-0.0030309086266666063,9.79045861543333,52.900000000000006,37.6,-132.5,0,0,0
2022-11-05 12:25:43.890606,-0.005281439038587008,-0.0011771882194440923,0.00022271128475969282,-0.017547365733333327,-0.005423731226666617,9.81677966403333,52.800000000000004,38.0,-131.5,0,0,0
2022-11-05 12:25:43.900160,-0.010326531407633118,-0.002949788241000833,0.0004954189803838068,-0.015154543133333323,-0.0030309086266666063,9.81438684143333,53.2,38.5,-132.70000000000002,0,0,0
2022-11-05 12:25:43.909714,-0.012235485277001915,0.0008681194977367621,0.0026770805453767187,-0.012761720533333333,-0.0006380860266665955,9.81677966403333,53.400000000000006,37.2,-132.20000000000002,0,0,0
2022-11-05 12:25:43.919267,0.0004454225695193861,0.004276965693038188,0.000631772828195864,-0.0031904301333333315,-0.010209376426666639,9.819172486633331,52.7,38.300000000000004,-131.1,0,0,0
2022-11-05 12:25:43.928807,-0.0010544697564132408,0.002095304128045275,8.635743694763607e-05,0.0015952150666666692,-0.010209376426666639,9.819172486633331,52.400000000000006,37.6,-132.1,0,0,0
2022-11-05 12:25:43.938376,0.0004454225695193861,-0.001722603610692321,-0.0015498887367970476,-0.015154543133333323,-0.0030309086266666063,9.79763708323333,52.6,37.4,-132.70000000000002,0,0,0
2022-11-05 12:25:43.947932,-0.001872592843285583,-0.0004954189803838081,-0.001958950280233219,0.00398803766666667,0.006540381773333381,9.807208373633332,52.800000000000004,37.9,-133.0,0,0,0
2022-11-05 12:25:43.957477,3.636102608321496e-05,-0.0011771882194440923,-0.003186134910541732,-0.024725833533333325,-0.0006380860266665955,9.804815551033329,52.400000000000006,39.0,-131.8,0,0,0
2022-11-05 12:25:43.967021,-0.001872592843285583,-0.0003590651325717509,-0.00236801182366939,-0.029511478733333325,-0.007816553826666628,9.80960119623333,52.300000000000004,39.0,-132.70000000000002,0,0,0
2022-11-05 12:25:43.977388,-0.00037270051735295573,-8.63574369476365e-05,0.000631772828195864,-0.0031904301333333315,-0.0030309086266666063,9.79763708323333,52.6,38.400000000000006,-131.4,0,0,0
2022-11-05 12:25:43.988141,0.003172499525760526,-0.006085926740678144,0.002949788241000833,0.01834497326666667,-0.0030309086266666063,9.804815551033329,53.1,39.300000000000004,-132.1,0,0,0
2022-11-05 12:25:43.998904,-0.008553931386076376,0.00045905795430059224,8.635743694763607e-05,0.020737795866666665,-0.019780666826666626,9.80960119623333,51.7,38.6,-131.4,0,0,0
2022-11-05 12:25:44.009639,-0.007599454451391977,-0.003495203632249061,8.635743694763607e-05,0.00638086026666667,-0.005423731226666617,9.78328014763333,52.5,39.300000000000004,-133.0,0,0,0
2022-11-05 12:25:44.020393,-0.006781331364519634,0.0026407195192935037,0.0004954189803838068,-0.0055832527333333284,-0.010209376426666639,9.819172486633331,53.6,38.300000000000004,-131.8,0,0,0
2022-11-05 12:25:44.032037,-0.002554362082345868,-0.008949357544731341,-0.0015498887367970476,-0.02711865613333333,0.028075785173333423,9.819172486633331,52.5,38.5,-133.20000000000002,0,0,0
2022-11-05 12:25:44.042799,-0.006508623668895521,-0.0013135420672561494,-0.005504150323346701,0.0015952150666666692,0.011326026973333403,9.823958131833331,52.0,38.2,-132.1,0,0,0
2022-11-05 12:25:44.053515,0.0003090687217073289,-0.001722603610692321,-0.003867904149602017,-0.015154543133333323,-0.0030309086266666063,9.81438684143333,52.2,38.2,-132.5,0,0,0
2022-11-05 12:25:44.064284,0.003172499525760526,-0.0030861420888128903,0.0017226036106923201,-0.015154543133333323,-0.010209376426666639,9.79285143803333,52.400000000000006,39.5,-133.1,0,0,0
2022-11-05 12:25:44.075052,-0.0014635312998494115,0.0031861349105417325,-0.0003227041064885346,0.015952150666666668,-0.007816553826666628,9.811994018833332,53.900000000000006,39.6,-132.20000000000002,0,0,0
2022-11-05 12:25:44.085558,0.003308853373572583,0.0025043656714814466,-0.001958950280233219,0.015952150666666668,-0.022173489426666637,9.80002990583333,52.6,39.7,-132.3,0,0,0
2022-11-05 12:25:44.096089,0.004399684156069039,0.004004257997414074,-4.999641086442111e-05,0.015952150666666668,0.006540381773333381,9.79763708323333,52.7,37.9,-133.0,0,0,0
2022-11-05 12:25:44.106594,-0.0017362389954735259,0.0016862425846091052,0.0014498959150682058,-0.012761720533333333,-0.005423731226666617,9.823958131833331,53.2,38.900000000000006,-130.70000000000002,0,0,0
2022-11-05 12:25:44.117092,-0.005008731342962894,0.0012771810411729336,0.002540726697564662,-0.022333010933333328,0.008933204373333392,9.804815551033329,53.6,38.400000000000006,-132.8,0,0,0
2022-11-05 12:25:44.147420,0.003990622612632868,0.0026407195192935037,0.002949788241000833,-0.017547365733333327,-0.01260219902666665,9.80960119623333,52.800000000000004,37.9,-132.20000000000002,0,0,0
2022-11-05 12:25:44.158013,-0.006917685212331691,0.0008681194977367621,0.0044496805669334595,0.011166505466666667,-0.0030309086266666063,9.81438684143333,52.800000000000004,38.300000000000004,-132.6,0,0,0
2022-11-05 12:25:44.198938,-0.004326962103902608,0.0025043656714814466,-0.0027770733671055614,-0.015154543133333323,0.011326026973333403,9.82156530923333,51.300000000000004,38.1,-131.1,0,0,0
2022-11-05 12:25:44.209461,-0.0010544697564132408,0.005231442627722587,0.0004954189803838068,-0.012761720533333333,0.0041475591733333705,9.79763708323333,52.300000000000004,38.900000000000006,-132.1,0,0,0
2022-11-05 12:25:44.219992,0.003172499525760526,0.002095304128045275,-0.0011408271933608769,-0.012761720533333333,-0.0006380860266665955,9.79524426063333,52.7,38.5,-132.1,0,0,0
2022-11-05 12:25:44.230493,-0.004326962103902608,-0.0013135420672561494,0.0017226036106923201,0.0015952150666666692,-0.0030309086266666063,9.804815551033329,52.5,38.0,-132.20000000000002,0,0,0
2022-11-05 12:25:44.241029,-0.0071903929079558055,0.0016862425846091052,-0.0001863502586764783,0.013559328066666668,-0.005423731226666617,9.823958131833331,52.900000000000006,38.1,-131.9,0,0,0
2022-11-05 12:25:44.251526,0.0015362533520158418,0.0030497810627296753,-0.0011408271933608769,-0.007976075333333332,-0.005423731226666617,9.83113659963333,52.400000000000006,37.800000000000004,-132.1,0,0,0
2022-11-05 12:25:44.262049,0.003308853373572583,0.0031861349105417325,0.003495203632249061,-0.012761720533333333,0.0041475591733333705,9.79524426063333,52.400000000000006,38.900000000000006,-133.1,0,0,0
2022-11-05 12:25:44.272562,-0.0054177928863990655,-0.0058132190450540305,0.004858742110369631,-0.012761720533333333,-0.014995021626666605,9.807208373633332,52.400000000000006,38.2,-132.9,0,0,0
2022-11-05 12:25:44.284178,-0.009372054472948716,-0.002131665154128491,-0.0010044733455488197,-0.0031904301333333315,0.008933204373333392,9.81677966403333,52.300000000000004,39.5,-132.3,0,0,0
2022-11-05 12:25:44.294769,-0.00609956212545935,0.003458842606165845,-0.004276965693038188,-0.012761720533333333,0.008933204373333392,9.82635095443333,52.6,37.6,-131.70000000000002,0,0,0
2022-11-05 12:25:44.305281,-0.003236131321406153,0.0030497810627296753,-0.004686027236474358,0.0015952150666666692,-0.0006380860266665955,9.80960119623333,52.300000000000004,38.2,-131.3,0,0,0
2022-11-05 12:25:44.315789,-0.0054177928863990655,0.0016862425846091052,8.635743694763607e-05,0.01834497326666667,0.0017547365733333598,9.823958131833331,52.2,38.5,-132.5,0,0,0
2022-11-05 12:25:44.326295,-0.0021453005389096965,0.0005954118021126494,-0.0027770733671055614,-0.0055832527333333284,-0.007816553826666628,9.80242272843333,51.7,38.5,-131.4,0,0,0
2022-11-05 12:25:44.336786,0.0005817764173314428,-0.004313326719121403,0.004858742110369631,-0.0055832527333333284,-0.0006380860266665955,9.80960119623333,52.400000000000006,38.6,-130.20000000000002,0,0,0
2022-11-05 12:25:44.347345,0.0007181302651435,0.0008681194977367621,0.001313542067256149,-0.017547365733333327,-0.005423731226666617,9.79524426063333,52.800000000000004,38.300000000000004,-131.5,0,0,0
2022-11-05 12:25:44.357880,-0.004599669799526722,-0.0003590651325717509,-0.001822596432421162,-0.03190430133333333,0.011326026973333403,9.82874377703333,52.1,38.2,-132.70000000000002,0,0,0
2022-11-05 12:25:44.368391,-0.004190608256090553,0.0005954118021126494,0.0009044805238199779,0.015952150666666668,0.0041475591733333705,9.77849450243333,52.6,37.7,-131.1,0,0,0
2022-11-05 12:25:44.378950,-0.001872592843285583,0.00045905795430059224,0.0009044805238199779,-0.0031904301333333315,0.006540381773333381,9.807208373633332,53.300000000000004,38.400000000000006,-132.20000000000002,0,0,0
2022-11-05 12:25:44.389463,0.002899791830136412,-0.0011771882194440923,0.0033588497844370038,0.015952150666666668,0.0041475591733333705,9.82156530923333,52.2,38.800000000000004,-133.1,0,0,0
2022-11-05 12:25:44.399990,-0.002418008234533811,-0.001722603610692321,-0.0003227041064885346,0.00638086026666667,-0.0030309086266666063,9.804815551033329,52.6,38.5,-133.70000000000002,0,0,0
2022-11-05 12:25:44.410503,-0.0007817620607891273,0.0005954118021126494,0.000631772828195864,0.008773682866666667,-0.019780666826666626,9.81438684143333,53.400000000000006,39.2,-132.5,0,0,0
2022-11-05 12:25:44.421034,-0.00023634666954089854,-0.0025407266975646624,-0.003049781062729675,-0.015154543133333323,-0.005423731226666617,9.819172486633331,52.300000000000004,37.300000000000004,-132.6,0,0,0
2022-11-05 12:25:44.431539,-0.002554362082345868,-0.0007681266760079207,-0.0022316579758573326,-0.022333010933333328,-0.010209376426666639,9.819172486633331,52.2,38.5,-132.4,0,0,0
2022-11-05 12:25:44.442075,-0.0010544697564132408,0.00018635025867647786,-0.000595411802112649,-0.007976075333333332,-0.017387844226666616,9.78088732503333,52.800000000000004,37.4,-131.9,0,0,0
2022-11-05 12:25:44.452577,-0.003645192864842324,-0.0015862497628802638,0.002131665154128491,-0.007976075333333332,-0.022173489426666637,9.80242272843333,53.900000000000006,38.900000000000006,-132.8,0,0,0
2022-11-05 12:25:44.463103,-0.005008731342962894,-0.0007681266760079207,8.635743694763607e-05,0.00638086026666667,-0.0030309086266666063,9.81677966403333,52.7,37.800000000000004,-132.0,0,0,0
2022-11-05 12:25:44.473633,0.0007181302651435,-0.0051314498059937454,-0.000595411802112649,0.011166505466666667,0.018504494773333324,9.811994018833332,53.1,38.0,-131.9,0,0,0
2022-11-05 12:25:44.484743,-0.005008731342962894,-0.0004954189803838081,-0.0010044733455488197,-0.007976075333333332,0.018504494773333324,9.80002990583333,53.300000000000004,39.0,-132.5,0,0,0
2022-11-05 12:25:44.495916,0.0007181302651435,0.0025043656714814466,-0.000595411802112649,-0.01036889793333333,0.0017547365733333598,9.811994018833332,53.2,38.7,-133.1,0,0,0
2022-11-05 12:25:44.506466,0.003308853373572583,0.002095304128045275,-0.0015498887367970476,-0.02711865613333333,-0.0006380860266665955,9.80002990583333,53.5,37.7,-133.4,0,0,0
2022-11-05 12:25:44.517028,-0.00609956212545935,-8.63574369476365e-05,0.000631772828195864,-0.0055832527333333284,-0.01260219902666665,9.80960119623333,53.5,38.800000000000004,-131.8,0,0,0
2022-11-05 12:25:44.527567,-0.003099777473594096,0.002095304128045275,-0.0001863502586764783,-0.01036889793333333,-0.02695913462666666,9.82874377703333,52.5,37.9,-132.0,0,0,0
2022-11-05 12:25:44.538099,-0.0026907159301579253,0.004140611845226131,0.0044496805669334595,0.00638086026666667,-0.024566312026666648,9.80960119623333,53.300000000000004,38.7,-132.5,0,0,0
2022-11-05 12:25:44.548639,-0.005690500582023178,0.0038679041496020167,0.000631772828195864,0.02313061846666667,-0.01260219902666665,9.83352942223333,52.800000000000004,38.5,-132.0,0,0,0
2022-11-05 12:25:44.559224,-0.008962992929512546,-0.001722603610692321,8.635743694763607e-05,0.00398803766666667,0.016111672173333313,9.811994018833332,53.400000000000006,37.6,-133.5,0,0,0
2022-11-05 12:25:44.569742,-0.008144869842640203,-0.0039042651756852325,-0.0022316579758573326,-0.0055832527333333284,0.028075785173333423,9.79045861543333,53.2,38.800000000000004,-132.70000000000002,0,0,0
2022-11-05 12:25:44.580246,-0.002554362082345868,-0.001722603610692321,0.0033588497844370038,-0.02711865613333333,0.011326026973333403,9.804815551033329,52.300000000000004,39.1,-133.3,0,0,0
2022-11-05 12:25:44.590760,0.0008544841129555572,0.007685811888339611,-0.000595411802112649,-0.029511478733333325,-0.014995021626666605,9.78328014763333,52.7,37.4,-131.9,0,0,0
2022-11-05 12:25:44.601261,-0.00037270051735295573,-8.63574369476365e-05,-0.003049781062729675,-0.0055832527333333284,-0.0006380860266665955,9.80242272843333,54.400000000000006,38.300000000000004,-131.70000000000002,0,0,0
2022-11-05 12:25:44.611775,0.002490730286700241,-0.0025407266975646624,0.000631772828195864,0.0015952150666666692,-0.024566312026666648,9.823958131833331,52.5,38.5,-133.3,0,0,0
2022-11-05 12:25:44.622296,-0.007872162147016092,-0.0064949882841143156,-0.0003227041064885346,0.0015952150666666692,-0.029351957226666614,9.811994018833332,53.5,38.1,-132.0,0,0,0
2022-11-05 12:25:44.632792,-0.006508623668895521,0.0018225964324211624,-0.003049781062729675,0.008773682866666667,-0.01260219902666665,9.79285143803333,52.900000000000006,37.300000000000004,-132.8,0,0,0
2022-11-05 12:25:44.643322,-0.011417362190129572,0.0016862425846091052,0.0017226036106923201,-0.0031904301333333315,0.013718849573333414,9.79285143803333,53.300000000000004,38.5,-133.0,0,0,0
2022-11-05 12:25:44.653844,-0.003099777473594096,-0.0077221729144228285,0.000631772828195864,0.00638086026666667,0.0232901399733334,9.81438684143333,52.800000000000004,38.2,-133.3,0,0,0
2022-11-05 12:25:44.664344,-0.006781331364519634,0.0005954118021126494,0.0014498959150682058,-0.022333010933333328,0.037647075573333355,9.80002990583333,53.0,38.1,-133.0,0,0,0
2022-11-05 12:25:44.674931,-0.003099777473594096,0.004004257997414074,0.002131665154128491,-0.024725833533333325,0.028075785173333423,9.811994018833332,53.2,38.400000000000006,-133.6,0,0,0
2022-11-05 12:25:44.686028,-0.007054039060143748,0.0031861349105417325,0.0009044805238199779,-0.012761720533333333,-0.010209376426666639,9.80960119623333,53.2,39.0,-133.3,0,0,0
2022-11-05 12:25:44.696555,-0.003645192864842324,0.0008681194977367621,-0.0010044733455488197,-0.0031904301333333315,-0.017387844226666616,9.80242272843333,53.300000000000004,39.0,-131.6,0,0,0
2022-11-05 12:25:44.707105,-0.0013271774520373552,0.0012771810411729336,0.000631772828195864,0.00398803766666667,-0.031744779826666625,9.81438684143333,52.300000000000004,38.0,-132.3,0,0,0
2022-11-05 12:25:44.717603,0.0003090687217073289,-0.0013135420672561494,0.000631772828195864,0.011166505466666667,-0.024566312026666648,9.83352942223333,53.0,38.7,-131.9,0,0,0
2022-11-05 12:25:44.728121,0.00208166874326407,-0.0013135420672561494,-0.0003227041064885346,0.0015952150666666692,-0.02695913462666666,9.819172486633331,52.800000000000004,38.900000000000006,-132.5,0,0,0
2022-11-05 12:25:44.738631,-0.003236131321406153,0.00018635025867647786,0.00022271128475969282,0.00638086026666667,0.016111672173333313,9.807208373633332,52.300000000000004,39.7,-132.8,0,0,0
2022-11-05 12:25:44.749379,0.001945314895452013,0.00045905795430059224,0.004313326719121403,0.00398803766666667,0.04721836597333334,9.79524426063333,52.6,37.6,-133.3,0,0,0
2022-11-05 12:25:44.759942,0.003581561069196697,-0.006085926740678144,0.002540726697564662,-0.041475591733333324,0.025682962573333412,9.819172486633331,52.900000000000006,38.7,-131.4,0,0,0
2022-11-05 12:25:44.770445,0.0011271918085796711,-0.007585819066610771,0.0018589574585043769,0.0015952150666666692,0.013718849573333414,9.82874377703333,53.400000000000006,38.400000000000006,-133.3,0,0,0
2022-11-05 12:25:44.781023,-0.0021453005389096965,0.002231657975857332,-0.003049781062729675,-0.017547365733333327,-0.02695913462666666,9.82874377703333,53.900000000000006,37.7,-133.6,0,0,0
2022-11-05 12:25:44.791530,0.0018089610476399562,0.00045905795430059224,-0.0001863502586764783,0.011166505466666667,-0.034137602426666636,9.83113659963333,53.0,37.300000000000004,-131.5,0,0,0
2022-11-05 12:25:44.802062,-0.0014635312998494115,0.005367796475534644,-0.0001863502586764783,-0.007976075333333332,-0.04370889282666662,9.807208373633332,52.800000000000004,38.2,-132.8,0,0,0
2022-11-05 12:25:44.812553,-0.003917900560466438,-0.0019953113063164336,-0.0010044733455488197,-0.015154543133333323,-0.0030309086266666063,9.804815551033329,53.5,38.300000000000004,-132.3,0,0,0
2022-11-05 12:25:44.823085,-0.0005090543651650129,0.007685811888339611,0.002949788241000833,0.0015952150666666692,0.011326026973333403,9.80960119623333,53.6,37.6,-131.5,0,0,0
2022-11-05 12:25:44.833577,3.636102608321496e-05,-0.001722603610692321,-0.00509508877991053,0.00398803766666667,0.028075785173333423,9.79524426063333,53.2,38.5,-133.6,0,0,0
2022-11-05 12:25:44.844113,0.0007181302651435,0.0007317656499247049,-0.0020953041280452763,-0.01036889793333333,0.032861430373333333,9.79763708323333,52.1,38.300000000000004,-131.70000000000002,0,0,0
2022-11-05 12:25:44.854638,0.003172499525760526,-0.0030861420888128903,0.0018589574585043769,-0.015154543133333323,0.0041475591733333705,9.807208373633332,52.800000000000004,37.4,-131.1,0,0,0
2022-11-05 12:25:44.865183,-0.007872162147016092,-0.0026770805453767196,-0.003867904149602017,0.0015952150666666692,0.0017547365733333598,9.79524426063333,52.6,37.5,-132.1,0,0,0
2022-11-05 12:25:44.875713,0.0003090687217073289,0.004276965693038188,-0.001822596432421162,0.008773682866666667,-0.04131607022666667,9.819172486633331,52.800000000000004,37.1,-131.9,0,0,0
2022-11-05 12:25:44.886251,0.004263330308256982,-0.002949788241000833,0.0011771882194440918,0.0015952150666666692,-0.02695913462666666,9.80960119623333,53.1,39.2,-132.70000000000002,0,0,0
2022-11-05 12:25:44.897363,0.0018089610476399562,-0.0013135420672561494,0.00022271128475969282,-0.015154543133333323,-0.029351957226666614,9.804815551033329,53.300000000000004,38.0,-132.4,0,0,0
2022-11-05 12:25:44.907862,0.00208166874326407,0.00509508877991053,-0.001958950280233219,-0.01994018833333333,-0.007816553826666628,9.80960119623333,52.6,38.7,-131.3,0,0,0
2022-11-05 12:25:44.918352,0.006854053416686065,-0.002813434393188776,-0.0033224887583537892,-0.022333010933333328,0.0041475591733333705,9.79763708323333,53.800000000000004,38.300000000000004,-131.9,0,0,0
2022-11-05 12:25:44.928869,-0.0021453005389096965,-0.002404372849752605,-0.0011408271933608769,-0.029511478733333325,0.030468607773333323,9.81438684143333,53.1,39.0,-131.5,0,0,0
2022-11-05 12:25:44.939372,-0.0013271774520373552,-0.0026770805453767196,0.003767911327873175,-0.015154543133333323,0.008933204373333392,9.82874377703333,52.900000000000006,38.300000000000004,-130.8,0,0,0
2022-11-05 12:25:44.949906,0.00017271487389527215,-0.002268019001940548,0.005267803653805802,0.0015952150666666692,0.013718849573333414,9.83352942223333,53.0,39.300000000000004,-132.20000000000002,0,0,0
2022-11-05 12:25:44.960415,-0.001872592843285583,0.00509508877991053,0.0004954189803838068,0.015952150666666668,-0.01260219902666665,9.79763708323333,53.2,38.0,-132.4,0,0,0
2022-11-05 12:25:44.970929,0.0011271918085796711,0.002777073367105561,-0.0010044733455488197,-0.012761720533333333,-0.005423731226666617,9.83831506743333,53.1,38.0,-133.3,0,0,0
2022-11-05 12:25:44.981460,0.0018089610476399562,-0.0051314498059937454,-0.004822381084286415,-0.015154543133333323,-0.019780666826666626,9.79285143803333,52.800000000000004,38.900000000000006,-132.20000000000002,0,0,0
2022-11-05 12:25:44.991994,0.003308853373572583,-0.0019953113063164336,0.0026770805453767187,0.00398803766666667,-0.014995021626666605,9.807208373633332,53.7,39.400000000000006,-132.9,0,0,0
2022-11-05 12:25:45.002497,-0.00473602364733878,-0.0015862497628802638,0.001040834371632035,-0.01994018833333333,0.006540381773333381,9.80960119623333,53.300000000000004,38.7,-132.3,0,0,0
2022-11-05 12:25:45.013045,-0.005281439038587008,-0.0037679113278731753,0.003495203632249061,-0.017547365733333327,0.0232901399733334,9.79763708323333,52.7,38.5,-132.1,0,0,0
2022-11-05 12:25:45.023545,-0.002418008234533811,0.0010044733455488192,-0.004004257997414074,0.0015952150666666692,0.018504494773333324,9.79285143803333,53.300000000000004,38.5,-132.4,0,0,0
2022-11-05 12:25:45.034071,-0.00037270051735295573,-0.0011771882194440923,-0.0034588426061658455,0.00638086026666667,-0.0030309086266666063,9.81677966403333,52.7,37.0,-132.8,0,0,0
2022-11-05 12:25:45.044551,0.007263114960122236,0.006731334953655212,-0.0003227041064885346,-0.012761720533333333,-0.0006380860266665955,9.82156530923333,52.6,37.5,-133.8,0,0,0
2022-11-05 12:25:45.055078,0.007126761112310179,0.002913427214917618,8.635743694763607e-05,-0.0055832527333333284,-0.02695913462666666,9.82156530923333,53.7,39.2,-133.1,0,0,0
2022-11-05 12:25:45.065573,0.007263114960122236,0.0031861349105417325,-0.0008681194977367634,-0.0055832527333333284,-0.024566312026666648,9.80960119623333,53.6,39.2,-132.70000000000002,0,0,0
2022-11-05 12:25:45.076122,-0.00023634666954089854,0.0030497810627296753,-0.000595411802112649,-0.024725833533333325,-0.014995021626666605,9.81677966403333,53.800000000000004,38.1,-132.5,0,0,0
2022-11-05 12:25:45.086634,0.002218022591076127,0.002095304128045275,0.002131665154128491,0.00638086026666667,0.006540381773333381,9.811994018833332,53.0,38.7,-132.5,0,0,0
2022-11-05 12:25:45.097744,0.004945099547317267,0.00018635025867647786,-0.0015498887367970476,-0.0031904301333333315,0.006540381773333381,9.804815551033329,52.7,39.1,-131.8,0,0,0
2022-11-05 12:25:45.108251,-9.999282172884223e-05,-0.010312896022851912,-0.004004257997414074,0.00638086026666667,0.018504494773333324,9.77849450243333,52.0,38.7,-130.6,0,0,0
2022-11-05 12:25:45.147388,3.636102608321496e-05,-0.003495203632249061,-0.0027770733671055614,-0.03190430133333333,-0.014995021626666605,9.804815551033329,52.7,38.5,-133.4,0,0,0
2022-11-05 12:25:45.157960,-0.010326531407633118,-0.0030861420888128903,0.002540726697564662,-0.024725833533333325,-0.022173489426666637,9.81438684143333,53.300000000000004,37.6,-132.20000000000002,0,0,0
2022-11-05 12:25:45.198924,-0.0028270697779699816,0.0038679041496020167,-0.0011408271933608769,0.027916263666666667,0.032861430373333333,9.79763708323333,53.400000000000006,38.1,-133.8,0,0,0
2022-11-05 12:25:45.209491,-0.001872592843285583,-0.0071767575231746,0.0004954189803838068,0.0015952150666666692,0.02089731737333339,9.807208373633332,53.7,38.0,-132.6,0,0,0
2022-11-05 12:25:45.220007,0.0011271918085796711,-0.0006317728281958635,0.004722388262557574,-0.01994018833333333,0.006540381773333381,9.804815551033329,53.6,39.0,-132.3,0,0,0
2022-11-05 12:25:45.230511,-0.0054177928863990655,-0.002404372849752605,0.001313542067256149,-0.017547365733333327,-0.01260219902666665,9.81677966403333,53.0,37.2,-132.5,0,0,0
2022-11-05 12:25:45.241033,-0.004190608256090553,0.0038679041496020167,0.002131665154128491,-0.007976075333333332,-0.005423731226666617,9.80002990583333,52.900000000000006,38.400000000000006,-131.9,0,0,0
2022-11-05 12:25:45.251533,0.0011271918085796711,0.0010044733455488192,-0.0007317656499247062,-0.01994018833333333,-0.036530425026666646,9.81677966403333,53.1,37.800000000000004,-132.0,0,0,0
2022-11-05 12:25:45.262057,-0.003099777473594096,-0.001722603610692321,-0.0010044733455488197,0.013559328066666668,-0.017387844226666616,9.807208373633332,52.6,37.4,-132.70000000000002,0,0,0
2022-11-05 12:25:45.272782,-0.002554362082345868,-0.002404372849752605,0.0017226036106923201,-0.0055832527333333284,0.008933204373333392,9.81438684143333,52.900000000000006,38.2,-130.6,0,0,0
2022-11-05 12:25:45.283371,-0.0054177928863990655,-0.0039042651756852325,0.00022271128475969282,-0.0031904301333333315,0.006540381773333381,9.819172486633331,52.0,37.800000000000004,-133.6,0,0,0
2022-11-05 12:25:45.293906,-0.00609956212545935,0.002777073367105561,0.0004954189803838068,-0.012761720533333333,0.0232901399733334,9.811994018833332,52.900000000000006,37.9,-132.8,0,0,0
2022-11-05 12:25:45.304409,-0.005690500582023178,0.002777073367105561,-0.003186134910541732,-0.024725833533333325,0.0041475591733333705,9.788065792833331,52.1,37.300000000000004,-133.3,0,0,0
2022-11-05 12:25:45.314915,0.004399684156069039,0.004958734932098472,0.002404372849752605,-0.012761720533333333,-0.0006380860266665955,9.79524426063333,53.400000000000006,38.7,-134.1,0,0,0
2022-11-05 12:25:45.325408,0.006035930329813723,0.00018635025867647786,-0.0033224887583537892,-0.0031904301333333315,-0.019780666826666626,9.80242272843333,52.6,38.7,-132.5,0,0,0
2022-11-05 12:25:45.335929,0.0018089610476399562,-0.0015862497628802638,0.0026770805453767187,-0.012761720533333333,-0.022173489426666637,9.81677966403333,52.900000000000006,37.300000000000004,-132.20000000000002,0,0,0
2022-11-05 12:25:45.346434,-0.003099777473594096,-0.0015862497628802638,-0.0014135348889849912,0.00638086026666667,-0.017387844226666616,9.84310071263333,53.400000000000006,38.400000000000006,-132.6,0,0,0
2022-11-05 12:25:45.357571,-0.003645192864842324,-0.006085926740678144,0.0026770805453767187,0.013559328066666668,0.0041475591733333705,9.80002990583333,53.5,38.400000000000006,-132.0,0,0,0
2022-11-05 12:25:45.368112,0.002218022591076127,0.002777073367105561,-0.0010044733455488197,0.0015952150666666692,0.016111672173333313,9.80960119623333,53.800000000000004,38.7,-133.3,0,0,0
2022-11-05 12:25:45.378603,-0.0021453005389096965,0.0038679041496020167,-0.0015498887367970476,-0.029511478733333325,0.018504494773333324,9.79045861543333,54.0,39.800000000000004,-130.0,0,0,0
2022-11-05 12:25:45.389126,-0.002554362082345868,0.0008681194977367621,0.004313326719121403,-0.0031904301333333315,0.02089731737333339,9.82156530923333,53.2,38.300000000000004,-134.0,0,0,0
2022-11-05 12:25:45.399613,-0.0017362389954735259,-0.005267803653805802,0.002131665154128491,-0.0055832527333333284,-0.0006380860266665955,9.81677966403333,53.300000000000004,38.6,-134.1,0,0,0
2022-11-05 12:25:45.410144,0.0003090687217073289,0.00045905795430059224,0.0004954189803838068,-0.015154543133333323,0.0017547365733333598,9.81677966403333,52.900000000000006,37.7,-133.1,0,0,0
2022-11-05 12:25:45.420631,0.00017271487389527215,0.006185919562406987,-0.004822381084286415,0.008773682866666667,-0.014995021626666605,9.80960119623333,53.800000000000004,38.2,-134.0,0,0,0
2022-11-05 12:25:45.431144,0.0030361456779484687,0.006185919562406987,-0.000595411802112649,0.008773682866666667,-0.02695913462666666,9.82156530923333,53.0,38.5,-132.9,0,0,0
2022-11-05 12:25:45.441634,3.636102608321496e-05,0.0030497810627296753,-0.0014135348889849912,0.01834497326666667,-0.022173489426666637,9.78567297023333,53.1,38.300000000000004,-134.3,0,0,0
2022-11-05 12:25:45.452152,-0.003645192864842324,0.005231442627722587,0.0017226036106923201,-0.0055832527333333284,-0.014995021626666605,9.804815551033329,54.1,37.800000000000004,-132.5,0,0,0
2022-11-05 12:25:45.462648,-0.005281439038587008,-0.0015862497628802638,-0.0022316579758573326,-0.01994018833333333,0.04482554337333333,9.78567297023333,54.0,38.400000000000006,-133.4,0,0,0
2022-11-05 12:25:45.473166,-0.0071903929079558055,-0.0025407266975646624,-0.0003227041064885346,-0.022333010933333328,0.025682962573333412,9.80242272843333,53.400000000000006,37.1,-132.6,0,0,0
2022-11-05 12:25:45.483692,-0.0054177928863990655,-0.002268019001940548,0.004858742110369631,-0.024725833533333325,0.02089731737333339,9.811994018833332,53.800000000000004,37.4,-133.1,0,0,0
2022-11-05 12:25:45.494209,-0.0054177928863990655,-0.0037679113278731753,-0.0015498887367970476,-0.0055832527333333284,-0.0030309086266666063,9.811994018833332,53.1,38.1,-131.0,0,0,0
2022-11-05 12:25:45.505255,-0.0028270697779699816,-0.0007681266760079207,-0.003186134910541732,0.0015952150666666692,-0.017387844226666616,9.807208373633332,53.5,38.300000000000004,-133.3,0,0,0
2022-11-05 12:25:45.515793,-0.0017362389954735259,-0.0071767575231746,0.0014498959150682058,0.011166505466666667,-0.019780666826666626,9.807208373633332,53.800000000000004,37.6,-133.6,0,0,0
2022-11-05 12:25:45.526308,-0.001872592843285583,-0.0032224959366249474,0.005131449805993745,-0.0007976075333333311,-0.01260219902666665,9.80960119623333,52.900000000000006,37.7,-133.1,0,0,0
2022-11-05 12:25:45.536815,-0.003236131321406153,0.0030497810627296753,-0.0010044733455488197,-0.012761720533333333,-0.022173489426666637,9.819172486633331,54.2,37.300000000000004,-133.70000000000002,0,0,0
2022-11-05 12:25:45.547425,-0.007872162147016092,0.0031861349105417325,-0.000595411802112649,-0.022333010933333328,0.0017547365733333598,9.81438684143333,53.300000000000004,38.6,-132.8,0,0,0
2022-11-05 12:25:45.558597,-0.005008731342962894,0.004276965693038188,-0.00236801182366939,-0.01994018833333333,0.011326026973333403,9.81677966403333,52.900000000000006,36.9,-132.20000000000002,0,0,0
2022-11-05 12:25:45.569161,-0.0015998851476614687,0.009458411909896353,-0.0014135348889849912,-0.012761720533333333,0.011326026973333403,9.819172486633331,52.7,37.800000000000004,-132.9,0,0,0
2022-11-05 12:25:45.579692,-0.0007817620607891273,0.0010044733455488192,-0.003186134910541732,-0.0055832527333333284,-0.0006380860266665955,9.82156530923333,52.0,38.2,-133.20000000000002,0,0,0
2022-11-05 12:25:45.590232,0.004945099547317267,0.0035951964539779023,-0.005640504171158757,0.02313061846666667,-0.01260219902666665,9.823958131833331,52.900000000000006,36.800000000000004,-132.4,0,0,0
2022-11-05 12:25:45.600716,-0.005826854429835235,-8.63574369476365e-05,0.00308614208881289,0.0015952150666666692,-0.017387844226666616,9.83592224483333,52.800000000000004,38.2,-132.70000000000002,0,0,0
2022-11-05 12:25:45.611322,-0.0054177928863990655,-0.0004954189803838081,0.002949788241000833,0.00638086026666667,-0.031744779826666625,9.776101679833332,52.0,39.5,-134.3,0,0,0
2022-11-05 12:25:45.621847,-0.004326962103902608,0.00045905795430059224,0.001040834371632035,-0.022333010933333328,-0.010209376426666639,9.82635095443333,53.1,38.2,-132.4,0,0,0
2022-11-05 12:25:45.632343,-0.0021453005389096965,-0.0007681266760079207,0.002268019001940548,-0.03190430133333333,0.0041475591733333705,9.807208373633332,52.800000000000004,38.6,-132.8,0,0,0
2022-11-05 12:25:45.642859,0.003854268764820811,-0.004040619023497289,0.002268019001940548,-0.017547365733333327,0.008933204373333392,9.81677966403333,52.300000000000004,37.6,-131.1,0,0,0
2022-11-05 12:25:45.653362,-0.0013271774520373552,0.0031861349105417325,-0.002640719519293504,-0.012761720533333333,0.006540381773333381,9.79524426063333,52.2,37.7,-132.3,0,0,0
2022-11-05 12:25:45.663845,-0.005690500582023178,0.0010044733455488192,-0.0014135348889849912,-0.007976075333333332,0.0041475591733333705,9.80960119623333,53.300000000000004,38.5,-133.6,0,0,0
2022-11-05 12:25:45.674341,-0.00473602364733878,0.0010044733455488192,-0.003049781062729675,0.013559328066666668,-0.01260219902666665,9.811994018833332,52.900000000000006,38.2,-132.8,0,0,0
2022-11-05 12:25:45.684820,-0.0017362389954735259,0.0030497810627296753,-0.0001863502586764783,-0.012761720533333333,-0.022173489426666637,9.82156530923333,53.2,37.0,-132.0,0,0,0
2022-11-05 12:25:45.695343,-0.002554362082345868,0.0016862425846091052,-0.0003227041064885346,-0.01036889793333333,-0.019780666826666626,9.811994018833332,53.800000000000004,37.300000000000004,-133.20000000000002,0,0,0
2022-11-05 12:25:45.705862,-0.006781331364519634,-0.0013135420672561494,0.0017226036106923201,-0.012761720533333333,-0.005423731226666617,9.823958131833331,52.800000000000004,37.2,-133.8,0,0,0
2022-11-05 12:25:45.716352,-0.0014635312998494115,0.0031861349105417325,0.002268019001940548,-0.0055832527333333284,0.006540381773333381,9.807208373633332,53.2,37.9,-132.5,0,0,0
2022-11-05 12:25:45.727122,-0.005281439038587008,0.0005954118021126494,-0.0034588426061658455,-0.012761720533333333,0.008933204373333392,9.788065792833331,53.7,38.2,-130.9,0,0,0
2022-11-05 12:25:45.737621,-0.00037270051735295573,0.004004257997414074,8.635743694763607e-05,-0.012761720533333333,0.0041475591733333705,9.78088732503333,52.5,38.900000000000006,-131.4,0,0,0
2022-11-05 12:25:45.748149,0.000990837960767614,-0.0033588497844370038,-0.0014135348889849912,0.013559328066666668,0.011326026973333403,9.819172486633331,52.6,37.4,-131.6,0,0,0
2022-11-05 12:25:45.758647,0.0011271918085796711,-0.004722388262557574,-0.000595411802112649,-0.0055832527333333284,0.011326026973333403,9.811994018833332,52.2,38.800000000000004,-132.3,0,0,0
2022-11-05 12:25:45.769730,-0.0035088390170302667,-8.63574369476365e-05,-0.0014135348889849912,-0.01036889793333333,-0.010209376426666639,9.807208373633332,52.5,37.7,-132.70000000000002,0,0,0
2022-11-05 12:25:45.780243,-0.007599454451391977,-8.63574369476365e-05,-0.003867904149602017,-0.01994018833333333,-0.022173489426666637,9.82156530923333,53.0,37.800000000000004,-132.0,0,0,0
2022-11-05 12:25:45.790736,-0.003645192864842324,0.0031861349105417325,-0.0015498887367970476,-0.017547365733333327,-0.010209376426666639,9.81677966403333,53.6,37.2,-132.0,0,0,0
2022-11-05 12:25:45.801238,-0.004599669799526722,-0.0033588497844370038,-0.003867904149602017,-0.0055832527333333284,-0.014995021626666605,9.804815551033329,53.0,38.1,-133.1,0,0,0
2022-11-05 12:25:45.811721,-0.002418008234533811,-0.005267803653805802,-0.0027770733671055614,0.0015952150666666692,-0.007816553826666628,9.847886357833332,52.7,37.7,-131.8,0,0,0
2022-11-05 12:25:45.822241,-0.001872592843285583,0.0008681194977367621,-0.0011408271933608769,-0.01036889793333333,0.032861430373333333,9.823958131833331,53.0,37.7,-133.0,0,0,0
2022-11-05 12:25:45.832732,-0.0071903929079558055,0.0008681194977367621,0.0014498959150682058,-0.0007976075333333311,0.008933204373333392,9.82156530923333,51.5,37.7,-133.8,0,0,0
2022-11-05 12:25:45.843256,-0.004599669799526722,-0.004722388262557574,0.00308614208881289,-0.012761720533333333,-0.005423731226666617,9.82156530923333,54.1,39.1,-132.6,0,0,0
2022-11-05 12:25:45.853737,-0.0013271774520373552,-0.0064949882841143156,0.0017226036106923201,-0.0031904301333333315,0.006540381773333381,9.807208373633332,52.7,37.1,-132.6,0,0,0
2022-11-05 12:25:45.864215,0.0003090687217073289,-0.0007681266760079207,-0.0014135348889849912,-0.015154543133333323,-0.007816553826666628,9.81677966403333,52.800000000000004,37.7,-132.1,0,0,0
2022-11-05 12:25:45.874702,-0.004599669799526722,0.00509508877991053,-0.0034588426061658455,-0.0007976075333333311,-0.010209376426666639,9.79524426063333,53.800000000000004,36.7,-133.8,0,0,0
2022-11-05 12:25:45.885248,-0.00609956212545935,0.0008681194977367621,0.0017226036106923201,-0.015154543133333323,-0.014995021626666605,9.81438684143333,53.6,37.6,-131.70000000000002,0,0,0
2022-11-05 12:25:45.895739,-0.008281223690452262,-0.006085926740678144,-0.0014135348889849912,0.0015952150666666692,0.018504494773333324,9.83352942223333,52.1,38.300000000000004,-132.9,0,0,0
2022-11-05 12:25:45.906247,-0.003917900560466438,-0.002404372849752605,0.0017226036106923201,0.00398803766666667,-0.0006380860266665955,9.804815551033329,54.300000000000004,39.0,-132.6,0,0,0
2022-11-05 12:25:45.916724,-0.003645192864842324,-0.0015862497628802638,0.0017226036106923201,0.00638086026666667,0.016111672173333313,9.81677966403333,52.0,37.6,-132.70000000000002,0,0,0
2022-11-05 12:25:45.927237,-0.002418008234533811,0.007958519583963725,0.00308614208881289,-0.0031904301333333315,0.006540381773333381,9.823958131833331,52.6,37.800000000000004,-132.4,0,0,0
2022-11-05 12:25:45.937721,-0.003917900560466438,-0.0009044805238199779,0.0018589574585043769,-0.007976075333333332,-0.01260219902666665,9.788065792833331,52.800000000000004,37.2,-133.0,0,0,0
2022-11-05 12:25:45.948193,-0.0071903929079558055,-0.0019953113063164336,0.0014498959150682058,-0.0007976075333333311,-0.0030309086266666063,9.80960119623333,52.2,38.1,-132.1,0,0,0
2022-11-05 12:25:45.958715,-0.004463315951714665,0.0012771810411729336,0.0044496805669334595,-0.007976075333333332,-0.0030309086266666063,9.80242272843333,52.800000000000004,39.0,-133.4,0,0,0
2022-11-05 12:25:45.969874,0.00753582265574635,-0.0018589574585043765,0.001313542067256149,-0.0055832527333333284,-0.019780666826666626,9.79763708323333,53.5,38.300000000000004,-133.6,0,0,0
2022-11-05 12:25:45.980373,0.00208166874326407,-8.63574369476365e-05,0.002540726697564662,-0.012761720533333333,-0.022173489426666637,9.80242272843333,53.7,39.0,-133.3,0,0,0
2022-11-05 12:25:45.990925,-0.0035088390170302667,-8.63574369476365e-05,-0.003049781062729675,-0.0031904301333333315,-0.007816553826666628,9.819172486633331,53.400000000000006,39.0,-133.5,0,0,0
2022-11-05 12:25:46.001427,-0.006372269821083464,0.00045905795430059224,0.0004954189803838068,-0.01994018833333333,0.011326026973333403,9.81677966403333,52.900000000000006,38.1,-133.70000000000002,0,0,0
2022-11-05 12:25:46.011939,-0.004190608256090553,0.002231657975857332,-0.0001863502586764783,-0.0031904301333333315,0.0041475591733333705,9.79763708323333,53.900000000000006,38.2,-131.70000000000002,0,0,0
2022-11-05 12:25:46.022468,-0.0021453005389096965,-0.0025407266975646624,0.0033588497844370038,-0.015154543133333323,0.011326026973333403,9.80242272843333,53.0,39.1,-131.70000000000002,0,0,0
2022-11-05 12:25:46.032972,0.0004454225695193861,0.002095304128045275,-0.001958950280233219,-0.0007976075333333311,-0.005423731226666617,9.84310071263333,52.5,37.800000000000004,-132.6,0,0,0
2022-11-05 12:25:46.043451,0.002899791830136412,-0.0019953113063164336,-0.003186134910541732,0.0015952150666666692,-0.007816553826666628,9.80002990583333,52.800000000000004,38.300000000000004,-131.4,0,0,0
2022-11-05 12:25:46.053967,0.002627084134512298,0.0010044733455488192,0.0033588497844370038,-0.0031904301333333315,-0.010209376426666639,9.80960119623333,52.6,37.9,-131.4,0,0,0
2022-11-05 12:25:46.064449,-0.002554362082345868,0.0031861349105417325,0.001040834371632035,-0.017547365733333327,-0.029351957226666614,9.811994018833332,52.800000000000004,37.9,-132.1,0,0,0
2022-11-05 12:25:46.074926,-0.003645192864842324,-0.0019953113063164336,-0.001822596432421162,-0.007976075333333332,-0.01260219902666665,9.811994018833332,53.5,37.5,-132.5,0,0,0
2022-11-05 12:25:46.085440,-0.00037270051735295573,-0.004313326719121403,-0.000595411802112649,-0.0055832527333333284,0.0017547365733333598,9.804815551033329,53.400000000000006,36.7,-133.0,0,0,0
2022-11-05 12:25:46.095962,0.002627084134512298,-0.005676865197241973,-0.0003227041064885346,-0.01036889793333333,0.016111672173333313,9.80002990583333,52.300000000000004,39.300000000000004,-132.70000000000002,0,0,0
2022-11-05 12:25:46.106443,-0.010326531407633118,-0.006358634436302258,0.002268019001940548,-0.0031904301333333315,0.006540381773333381,9.82635095443333,52.6,38.2,-132.3,0,0,0
2022-11-05 12:25:46.116945,-0.0014635312998494115,0.0035951964539779023,0.0017226036106923201,-0.015154543133333323,-0.0006380860266665955,9.80242272843333,52.900000000000006,38.0,-133.4,0,0,0
2022-11-05 12:25:46.147336,-0.00882663908170049,0.0026407195192935037,0.004313326719121403,0.008773682866666667,-0.0030309086266666063,9.80242272843333,53.0,37.4,-133.4,0,0,0
2022-11-05 12:25:46.157892,-0.003236131321406153,0.006731334953655212,0.004040619023497289,0.008773682866666667,-0.010209376426666639,9.79763708323333,53.7,39.2,-133.0,0,0,0
2022-11-05 12:25:46.198862,-0.002554362082345868,-0.002949788241000833,-0.0035951964539779027,0.00638086026666667,0.0041475591733333705,9.79763708323333,52.1,38.0,-131.9,0,0,0
2022-11-05 12:25:46.209382,3.636102608321496e-05,0.0012771810411729336,-0.0011408271933608769,-0.0007976075333333311,0.008933204373333392,9.81677966403333,53.6,37.2,-133.6,0,0,0
2022-11-05 12:25:46.220527,3.636102608321496e-05,-0.002131665154128491,-0.000595411802112649,-0.0031904301333333315,-0.010209376426666639,9.823958131833331,52.5,38.7,-132.9,0,0,0
2022-11-05 12:25:46.231077,-0.008690285233888432,0.002231657975857332,0.002540726697564662,-0.0031904301333333315,-0.019780666826666626,9.80002990583333,52.6,37.5,-132.0,0,0,0
2022-11-05 12:25:46.241804,0.0011271918085796711,0.0005954118021126494,-0.003049781062729675,-0.0055832527333333284,-0.022173489426666637,9.811994018833332,52.300000000000004,38.1,-133.0,0,0,0
2022-11-05 12:25:46.252317,-0.004599669799526722,0.005640504171158758,0.0004954189803838068,-0.007976075333333332,0.0017547365733333598,9.804815551033329,52.400000000000006,37.4,-132.0,0,0,0
2022-11-05 12:25:46.262847,-0.0054177928863990655,-0.004313326719121403,0.002540726697564662,-0.012761720533333333,0.016111672173333313,9.80002990583333,52.7,38.5,-132.4,0,0,0
2022-11-05 12:25:46.273360,-0.001872592843285583,-0.0025407266975646624,0.0017226036106923201,-0.0055832527333333284,0.006540381773333381,9.819172486633331,52.800000000000004,38.400000000000006,-132.1,0,0,0
2022-11-05 12:25:46.283888,-0.0013271774520373552,-0.001722603610692321,-0.0007317656499247062,0.00638086026666667,0.0017547365733333598,9.804815551033329,52.7,37.6,-132.3,0,0,0
2022-11-05 12:25:46.294418,-0.0017362389954735259,0.0016862425846091052,0.0009044805238199779,-0.0031904301333333315,0.013718849573333414,9.819172486633331,52.5,37.1,-133.0,0,0,0
2022-11-05 12:25:46.304939,-0.00037270051735295573,-0.002949788241000833,0.0004954189803838068,0.015952150666666668,0.0041475591733333705,9.819172486633331,52.1,37.9,-133.0,0,0,0
2022-11-05 12:25:46.315431,0.00658134572106195,0.004822381084286415,0.0011771882194440918,0.00398803766666667,-0.01260219902666665,9.811994018833332,52.7,38.900000000000006,-131.1,0,0,0
2022-11-05 12:25:46.325946,0.003172499525760526,0.0014135348889849908,0.0009044805238199779,-0.0055832527333333284,-0.014995021626666605,9.80242272843333,53.0,38.6,-131.5,0,0,0
2022-11-05 12:25:46.336425,-0.003645192864842324,-0.001722603610692321,0.003495203632249061,-0.007976075333333332,-0.007816553826666628,9.80960119623333,52.800000000000004,38.5,-130.8,0,0,0
2022-11-05 12:25:46.346920,-0.00609956212545935,-0.006358634436302258,0.001040834371632035,-0.01036889793333333,-0.010209376426666639,9.84310071263333,52.400000000000006,38.0,-131.9,0,0,0
2022-11-05 12:25:46.357398,-0.00037270051735295573,-0.0011771882194440923,0.0014498959150682058,0.01834497326666667,-0.0030309086266666063,9.804815551033329,53.2,35.9,-132.5,0,0,0
2022-11-05 12:25:46.367904,-0.0020089466910976402,0.0074131041927155,-0.0007317656499247062,-0.01036889793333333,0.02089731737333339,9.83352942223333,54.2,37.4,-131.6,0,0,0
2022-11-05 12:25:46.378378,0.003581561069196697,-0.004995095958181688,0.0009044805238199779,-0.015154543133333323,0.0017547365733333598,9.81438684143333,53.400000000000006,38.900000000000006,-132.5,0,0,0
2022-11-05 12:25:46.388913,-0.00037270051735295573,-0.0037679113278731753,-0.0007317656499247062,-0.015154543133333323,0.0017547365733333598,9.823958131833331,53.800000000000004,39.5,-131.4,0,0,0
2022-11-05 12:25:46.399402,0.00208166874326407,-0.0019953113063164336,0.002268019001940548,-0.012761720533333333,-0.019780666826666626,9.83352942223333,53.400000000000006,38.2,-131.1,0,0,0
2022-11-05 12:25:46.409893,-0.0006454082129770701,-0.006085926740678144,8.635743694763607e-05,-0.015154543133333323,-0.010209376426666639,9.823958131833331,52.300000000000004,38.1,-131.6,0,0,0
2022-11-05 12:25:46.420392,-0.002554362082345868,-0.0033588497844370038,-0.0007317656499247062,-0.01036889793333333,-0.010209376426666639,9.82635095443333,52.5,37.6,-131.70000000000002,0,0,0
2022-11-05 12:25:46.431768,-0.007599454451391977,-0.0026770805453767196,-0.0014135348889849912,-0.01994018833333333,-0.019780666826666626,9.819172486633331,52.900000000000006,37.800000000000004,-134.20000000000002,0,0,0
2022-11-05 12:25:46.442297,-0.003645192864842324,-0.0013135420672561494,8.635743694763607e-05,-0.0031904301333333315,-0.0030309086266666063,9.82635095443333,52.0,38.300000000000004,-131.6,0,0,0
2022-11-05 12:25:46.452787,-0.0028270697779699816,-0.0033588497844370038,0.00308614208881289,0.00638086026666667,0.0041475591733333705,9.80960119623333,52.5,37.6,-131.0,0,0,0
2022-11-05 12:25:46.463300,0.001399899504203785,-0.004858742110369631,0.004722388262557574,-0.0007976075333333311,-0.0030309086266666063,9.807208373633332,54.0,38.800000000000004,-133.70000000000002,0,0,0
2022-11-05 12:25:46.473815,-0.0005090543651650129,0.00045905795430059224,0.0044496805669334595,-0.0031904301333333315,0.013718849573333414,9.77370885723333,53.800000000000004,37.7,-131.20000000000002,0,0,0
2022-11-05 12:25:46.484299,-9.999282172884223e-05,0.001549888736797048,0.004040619023497289,0.0015952150666666692,0.013718849573333414,9.79285143803333,53.2,38.800000000000004,-131.4,0,0,0
2022-11-05 12:25:46.494865,-0.0006454082129770701,0.0018225964324211624,-0.004276965693038188,0.00638086026666667,-0.007816553826666628,9.78088732503333,53.800000000000004,37.9,-132.0,0,0,0
2022-11-05 12:25:46.505524,0.0018089610476399562,0.004276965693038188,0.0018589574585043769,-0.0007976075333333311,-0.010209376426666639,9.807208373633332,53.2,38.800000000000004,-132.6,0,0,0
2022-11-05 12:25:46.516111,-0.005281439038587008,-0.0013135420672561494,-0.003186134910541732,-0.0007976075333333311,-0.014995021626666605,9.80242272843333,52.800000000000004,37.300000000000004,-131.5,0,0,0
2022-11-05 12:25:46.526628,-0.0028270697779699816,0.0031861349105417325,-0.001958950280233219,-0.012761720533333333,-0.019780666826666626,9.804815551033329,52.2,38.2,-131.70000000000002,0,0,0
2022-11-05 12:25:46.537159,-0.004599669799526722,-0.005540511349429916,0.001313542067256149,-0.0007976075333333311,0.0017547365733333598,9.80002990583333,52.0,37.0,-132.70000000000002,0,0,0
2022-11-05 12:25:46.547699,0.00208166874326407,-0.0064949882841143156,0.002949788241000833,0.00398803766666667,0.0017547365733333598,9.80002990583333,53.300000000000004,39.7,-132.20000000000002,0,0,0
2022-11-05 12:25:46.558280,-0.0010544697564132408,-0.002131665154128491,-0.0022316579758573326,-0.02711865613333333,-0.0006380860266665955,9.81677966403333,51.6,38.2,-131.8,0,0,0
2022-11-05 12:25:46.568768,-0.0035088390170302667,-0.0026770805453767196,-0.0003227041064885346,-0.022333010933333328,-0.005423731226666617,9.807208373633332,53.0,38.6,-131.8,0,0,0
2022-11-05 12:25:46.579305,-0.0017362389954735259,0.002777073367105561,-0.0003227041064885346,-0.017547365733333327,-0.01260219902666665,9.79045861543333,53.6,38.6,-131.9,0,0,0
2022-11-05 12:25:46.589867,-0.0014635312998494115,-0.0039042651756852325,-0.0001863502586764783,-0.015154543133333323,-0.007816553826666628,9.81677966403333,53.2,37.6,-131.3,0,0,0
2022-11-05 12:25:46.600366,0.0004454225695193861,-0.002404372849752605,8.635743694763607e-05,-0.0031904301333333315,-0.017387844226666616,9.79524426063333,52.400000000000006,37.7,-131.3,0,0,0
2022-11-05 12:25:46.610896,0.001399899504203785,-0.004722388262557574,-0.0015498887367970476,0.011166505466666667,-0.01260219902666665,9.80242272843333,53.1,38.7,-132.3,0,0,0
2022-11-05 12:25:46.621371,0.000990837960767614,0.0016862425846091052,0.0017226036106923201,-0.0007976075333333311,-0.0006380860266665955,9.80242272843333,53.6,37.6,-132.3,0,0,0
2022-11-05 12:25:46.632697,0.003172499525760526,0.00045905795430059224,-0.0007317656499247062,-0.0007976075333333311,0.013718849573333414,9.81677966403333,52.900000000000006,38.5,-131.20000000000002,0,0,0
2022-11-05 12:25:46.643277,-0.006508623668895521,-0.008676649849107227,-0.000595411802112649,0.0015952150666666692,0.013718849573333414,9.819172486633331,52.6,38.800000000000004,-132.3,0,0,0
2022-11-05 12:25:46.653814,-0.010735592951069288,-0.0039042651756852325,-0.0001863502586764783,-0.017547365733333327,-0.0006380860266665955,9.811994018833332,53.300000000000004,38.800000000000004,-131.70000000000002,0,0,0
2022-11-05 12:25:46.664312,-0.003099777473594096,-0.003495203632249061,-0.0014135348889849912,-0.015154543133333323,0.013718849573333414,9.80960119623333,54.0,37.6,-132.5,0,0,0
2022-11-05 12:25:46.674837,-0.003645192864842324,-0.0030861420888128903,-0.0034588426061658455,-0.015154543133333323,-0.017387844226666616,9.83113659963333,53.5,37.9,-132.6,0,0,0
2022-11-05 12:25:46.685327,-0.003645192864842324,0.002777073367105561,-0.003186134910541732,0.008773682866666667,-0.01260219902666665,9.788065792833331,52.300000000000004,37.6,-132.1,0,0,0
2022-11-05 12:25:46.696109,-0.0035088390170302667,0.0010044733455488192,0.001313542067256149,0.00638086026666667,-0.017387844226666616,9.804815551033329,53.1,37.5,-132.70000000000002,0,0,0
2022-11-05 12:25:46.706608,0.001263545656391728,0.0008681194977367621,0.004313326719121403,-0.015154543133333323,-0.01260219902666665,9.80002990583333,52.7,38.900000000000006,-133.5,0,0,0
2022-11-05 12:25:46.717137,-0.007599454451391977,-0.011676434500972482,0.0017226036106923201,0.00398803766666667,0.0017547365733333598,9.82156530923333,53.2,37.6,-133.6,0,0,0
2022-11-05 12:25:46.727635,-0.0035088390170302667,-0.0025407266975646624,-0.0063222734102190425,-0.0031904301333333315,-0.0006380860266665955,9.80002990583333,53.0,37.7,-131.6,0,0,0
2022-11-05 12:25:46.738157,-0.0007817620607891273,-0.0003590651325717509,-0.003186134910541732,-0.007976075333333332,0.0041475591733333705,9.804815551033329,52.2,37.0,-131.4,0,0,0
2022-11-05 12:25:46.748658,-0.010053823712009004,-0.010040188327227797,0.002131665154128491,0.00638086026666667,0.0017547365733333598,9.80960119623333,52.400000000000006,38.400000000000006,-132.8,0,0,0
2022-11-05 12:25:46.759193,-0.00473602364733878,-0.0014498959150682066,0.003904265175685232,-0.007976075333333332,-0.014995021626666605,9.811994018833332,52.300000000000004,37.800000000000004,-132.8,0,0,0
2022-11-05 12:25:46.769696,-0.005690500582023178,-0.001722603610692321,0.000631772828195864,0.00638086026666667,0.0017547365733333598,9.79524426063333,53.5,38.7,-131.20000000000002,0,0,0
2022-11-05 12:25:46.780180,-0.007054039060143748,0.0010044733455488192,0.001313542067256149,-0.012761720533333333,-0.01260219902666665,9.819172486633331,53.800000000000004,37.6,-132.1,0,0,0
2022-11-05 12:25:46.790736,-0.006372269821083464,-0.0045860344147455176,0.00308614208881289,-0.01036889793333333,0.013718849573333414,9.79763708323333,53.300000000000004,38.0,-132.9,0,0,0
2022-11-05 12:25:46.801256,-0.004190608256090553,-0.004176972871309346,8.635743694763607e-05,-0.012761720533333333,-0.0030309086266666063,9.83352942223333,52.900000000000006,37.6,-131.3,0,0,0
2022-11-05 12:25:46.811752,-0.004326962103902608,0.0035951964539779023,8.635743694763607e-05,-0.02711865613333333,0.0017547365733333598,9.819172486633331,52.7,38.300000000000004,-132.4,0,0,0
2022-11-05 12:25:46.822262,0.003990622612632868,0.001958950280233218,-0.001277181041172934,-0.012761720533333333,0.011326026973333403,9.79524426063333,52.800000000000004,37.6,-131.3,0,0,0
2022-11-05 12:25:46.833386,0.002218022591076127,-8.63574369476365e-05,0.002268019001940548,0.0015952150666666692,0.011326026973333403,9.82874377703333,51.2,38.6,-131.9,0,0,0
2022-11-05 12:25:46.843906,-0.0006454082129770701,0.004276965693038188,-0.00509508877991053,0.00398803766666667,0.0017547365733333598,9.82635095443333,51.1,37.7,-131.6,0,0,0
2022-11-05 12:25:46.854382,0.003854268764820811,0.002913427214917618,-0.0014135348889849912,0.015952150666666668,0.006540381773333381,9.804815551033329,52.400000000000006,38.2,-132.6,0,0,0
2022-11-05 12:25:46.864879,0.0011271918085796711,-0.0051314498059937454,-0.004413319540850244,-0.007976075333333332,-0.014995021626666605,9.80960119623333,52.400000000000006,38.400000000000006,-132.0,0,0,0
2022-11-05 12:25:46.875365,-0.003917900560466438,0.002095304128045275,-0.0014135348889849912,-0.007976075333333332,-0.01260219902666665,9.78328014763333,53.0,37.7,-132.8,0,0,0
2022-11-05 12:25:46.885860,0.001399899504203785,0.0005954118021126494,0.0009044805238199779,0.00638086026666667,-0.0030309086266666063,9.804815551033329,52.2,39.0,-134.0,0,0,0
2022-11-05 12:25:46.896367,-0.0071903929079558055,-0.003495203632249061,0.001313542067256149,0.00398803766666667,-0.005423731226666617,9.80242272843333,52.6,37.9,-132.4,0,0,0
2022-11-05 12:25:46.906862,0.003172499525760526,-0.0039042651756852325,-0.0001863502586764783,-0.007976075333333332,-0.005423731226666617,9.804815551033329,51.900000000000006,38.900000000000006,-133.4,0,0,0
2022-11-05 12:25:46.917346,0.004399684156069039,-0.003631557480061118,0.0004954189803838068,-0.0007976075333333311,0.016111672173333313,9.80002990583333,52.1,38.0,-134.1,0,0,0
2022-11-05 12:25:46.927813,-0.008281223690452262,0.0005954118021126494,0.003767911327873175,0.00398803766666667,0.013718849573333414,9.79524426063333,53.300000000000004,38.300000000000004,-132.1,0,0,0
2022-11-05 12:25:46.938284,-0.0021453005389096965,-8.63574369476365e-05,8.635743694763607e-05,-0.007976075333333332,0.0041475591733333705,9.81677966403333,53.2,38.7,-132.8,0,0,0
2022-11-05 12:25:46.948761,0.0011271918085796711,0.003458842606165845,-0.0011408271933608769,-0.022333010933333328,-0.014995021626666605,9.811994018833332,52.900000000000006,37.4,-133.3,0,0,0
2022-11-05 12:25:46.959275,0.001399899504203785,-0.0030861420888128903,0.002131665154128491,-0.012761720533333333,-0.01260219902666665,9.776101679833332,53.2,38.6,-132.4,0,0,0
2022-11-05 12:25:46.969734,0.002627084134512298,-0.005949572892866087,0.003495203632249061,-0.022333010933333328,0.0041475591733333705,9.807208373633332,53.0,38.5,-132.6,0,0,0
2022-11-05 12:25:46.980217,-0.006508623668895521,0.00018635025867647786,0.00022271128475969282,-0.029511478733333325,-0.0006380860266665955,9.82156530923333,52.900000000000006,38.5,-132.3,0,0,0
2022-11-05 12:25:46.990741,0.0037179149170087538,0.0026407195192935037,0.003904265175685232,-0.012761720533333333,0.0017547365733333598,9.81438684143333,52.0,39.7,-131.0,0,0,0
2022-11-05 12:25:47.001244,-0.0028270697779699816,0.0038679041496020167,0.002949788241000833,0.025523441066666666,0.0041475591733333705,9.819172486633331,53.1,39.300000000000004,-131.6,0,0,0
2022-11-05 12:25:47.011730,-0.0013271774520373552,0.0005954118021126494,-0.0001863502586764783,-0.012761720533333333,0.0017547365733333598,9.81438684143333,52.5,38.7,-132.6,0,0,0
2022-11-05 12:25:47.022239,-0.0014635312998494115,4.999641086442068e-05,-0.001958950280233219,-0.0007976075333333311,-0.01260219902666665,9.819172486633331,52.400000000000006,38.2,-132.3,0,0,0
2022-11-05 12:25:47.033311,-0.006781331364519634,0.003458842606165845,0.0009044805238199779,-0.012761720533333333,-0.017387844226666616,9.82635095443333,52.6,38.800000000000004,-131.8,0,0,0
2022-11-05 12:25:47.043808,-0.0035088390170302667,0.0016862425846091052,0.0018589574585043769,-0.015154543133333323,-0.0030309086266666063,9.79763708323333,52.900000000000006,36.800000000000004,-132.0,0,0,0
2022-11-05 12:25:47.054278,-0.002554362082345868,-0.002131665154128491,-0.003867904149602017,-0.0031904301333333315,-0.007816553826666628,9.80960119623333,53.6,37.5,-133.8,0,0,0
2022-11-05 12:25:47.064748,-0.005826854429835235,-0.0026770805453767196,-0.0007317656499247062,-0.0055832527333333284,-0.007816553826666628,9.80242272843333,53.5,37.6,-133.4,0,0,0
2022-11-05 12:25:47.075269,0.003172499525760526,-0.002404372849752605,0.000631772828195864,-0.0007976075333333311,-0.0006380860266665955,9.79285143803333,53.0,38.6,-134.1,0,0,0
2022-11-05 12:25:47.085741,0.004536038003881096,0.006049565714594928,0.005949572892866087,-0.017547365733333327,-0.0030309086266666063,9.79285143803333,54.0,37.300000000000004,-133.20000000000002,0,0,0
2022-11-05 12:25:47.096257,-0.0006454082129770701,0.0012771810411729336,-0.0011408271933608769,-0.01994018833333333,0.008933204373333392,9.78567297023333,53.400000000000006,39.900000000000006,-133.20000000000002,0,0,0
2022-11-05 12:25:47.106747,0.0003090687217073289,-0.0019953113063164336,-0.000595411802112649,-0.015154543133333323,0.011326026973333403,9.81438684143333,54.1,38.900000000000006,-131.4,0,0,0
2022-11-05 12:25:47.117263,-0.003781546712654381,0.00509508877991053,0.004313326719121403,0.008773682866666667,-0.007816553826666628,9.81677966403333,53.800000000000004,38.5,-132.20000000000002,0,0,0
2022-11-05 12:25:47.147469,0.00208166874326407,-0.002404372849752605,0.0009044805238199779,-0.012761720533333333,-0.01260219902666665,9.807208373633332,52.400000000000006,37.4,-131.4,0,0,0
2022-11-05 12:25:47.158042,0.003854268764820811,-0.004858742110369631,0.001313542067256149,0.0015952150666666692,-0.0006380860266665955,9.80242272843333,53.300000000000004,38.400000000000006,-131.5,0,0,0
2022-11-05 12:25:47.198935,-0.008553931386076376,-0.002404372849752605,-0.005640504171158757,-0.0007976075333333311,0.006540381773333381,9.83831506743333,52.5,38.1,-132.1,0,0,0
2022-11-05 12:25:47.209732,0.002218022591076127,-0.002949788241000833,-0.004276965693038188,-0.01994018833333333,0.0017547365733333598,9.79763708323333,53.300000000000004,38.0,-132.0,0,0,0
2022-11-05 12:25:47.220320,-0.00037270051735295573,0.0031861349105417325,-0.003867904149602017,-0.0007976075333333311,0.0041475591733333705,9.81438684143333,52.300000000000004,38.400000000000006,-132.70000000000002,0,0,0
2022-11-05 12:25:47.230887,0.0011271918085796711,-0.0025407266975646624,8.635743694763607e-05,0.00398803766666667,-0.01260219902666665,9.81438684143333,52.6,38.800000000000004,-131.8,0,0,0
2022-11-05 12:25:47.241402,0.0007181302651435,-0.005267803653805802,-0.000595411802112649,-0.007976075333333332,-0.024566312026666648,9.81677966403333,53.2,38.400000000000006,-131.5,0,0,0
2022-11-05 12:25:47.251938,0.003308853373572583,-0.001722603610692321,-0.0007317656499247062,-0.01036889793333333,0.006540381773333381,9.819172486633331,53.400000000000006,38.5,-132.5,0,0,0
2022-11-05 12:25:47.262448,-0.007872162147016092,-0.0033588497844370038,-0.001822596432421162,-0.0055832527333333284,0.011326026973333403,9.804815551033329,52.900000000000006,39.400000000000006,-133.20000000000002,0,0,0
2022-11-05 12:25:47.272978,-0.001872592843285583,-0.003495203632249061,-0.0003227041064885346,-0.0055832527333333284,-0.0030309086266666063,9.80002990583333,52.5,39.1,-132.1,0,0,0
2022-11-05 12:25:47.284087,0.0004454225695193861,-0.0003590651325717509,-0.0010044733455488197,-0.01036889793333333,-0.014995021626666605,9.83113659963333,52.800000000000004,38.400000000000006,-132.1,0,0,0
2022-11-05 12:25:47.294692,0.001399899504203785,-8.63574369476365e-05,-0.0003227041064885346,-0.01994018833333333,-0.007816553826666628,9.81677966403333,53.2,38.2,-131.1,0,0,0
2022-11-05 12:25:47.305233,-0.003236131321406153,0.0010044733455488192,0.001313542067256149,-0.017547365733333327,-0.010209376426666639,9.819172486633331,53.400000000000006,38.400000000000006,-132.4,0,0,0
2022-11-05 12:25:47.315733,0.00208166874326407,0.004413319540850245,-0.0001863502586764783,-0.01036889793333333,-0.005423731226666617,9.83113659963333,53.1,38.0,-132.5,0,0,0
2022-11-05 12:25:47.326253,0.007263114960122236,0.0005954118021126494,0.0011771882194440918,0.00398803766666667,-0.0006380860266665955,9.83831506743333,53.1,37.0,-132.3,0,0,0
2022-11-05 12:25:47.336740,-0.003917900560466438,0.0026407195192935037,0.000631772828195864,0.015952150666666668,-0.010209376426666639,9.807208373633332,53.400000000000006,38.5,-131.4,0,0,0
2022-11-05 12:25:47.347278,0.00017271487389527215,0.007276750344903441,0.001040834371632035,-0.0031904301333333315,-0.01260219902666665,9.79524426063333,52.800000000000004,37.9,-133.0,0,0,0
2022-11-05 12:25:47.357825,0.00753582265574635,-0.006631342131926372,8.635743694763607e-05,-0.015154543133333323,0.0041475591733333705,9.807208373633332,53.0,38.6,-131.4,0,0,0
2022-11-05 12:25:47.368321,0.0018089610476399562,-0.0003590651325717509,0.00022271128475969282,-0.017547365733333327,-0.010209376426666639,9.79045861543333,53.300000000000004,38.800000000000004,-131.8,0,0,0
2022-11-05 12:25:47.378851,-0.00037270051735295573,0.0010044733455488192,0.003767911327873175,0.00638086026666667,0.006540381773333381,9.819172486633331,53.7,39.0,-132.8,0,0,0
2022-11-05 12:25:47.389364,-0.003099777473594096,0.0031861349105417325,0.001313542067256149,-0.01036889793333333,-0.0030309086266666063,9.82635095443333,53.900000000000006,37.5,-131.6,0,0,0
2022-11-05 12:25:47.399933,0.001399899504203785,0.0018225964324211624,0.0018589574585043769,-0.007976075333333332,-0.017387844226666616,9.79524426063333,52.400000000000006,38.2,-132.0,0,0,0
2022-11-05 12:25:47.410438,0.000990837960767614,0.0031861349105417325,0.003495203632249061,-0.0055832527333333284,-0.005423731226666617,9.811994018833332,53.400000000000006,38.1,-131.6,0,0,0
2022-11-05 12:25:47.420967,-0.0028270697779699816,-0.0025407266975646624,0.0014498959150682058,0.0015952150666666692,-0.014995021626666605,9.83592224483333,53.6,37.7,-134.0,0,0,0
2022-11-05 12:25:47.431466,-0.008553931386076376,-0.0033588497844370038,-0.0007317656499247062,-0.017547365733333327,-0.007816553826666628,9.81677966403333,53.400000000000006,37.5,-133.0,0,0,0
2022-11-05 12:25:47.442002,-0.003236131321406153,-0.002131665154128491,0.0009044805238199779,-0.007976075333333332,-0.010209376426666639,9.80242272843333,53.2,38.5,-132.8,0,0,0
2022-11-05 12:25:47.452496,-0.0028270697779699816,-0.0026770805453767196,0.0026770805453767187,-0.015154543133333323,0.008933204373333392,9.79285143803333,51.900000000000006,38.800000000000004,-132.1,0,0,0
2022-11-05 12:25:47.462986,0.0015362533520158418,-0.0007681266760079207,0.00022271128475969282,-0.007976075333333332,-0.0030309086266666063,9.807208373633332,53.300000000000004,38.7,-132.3,0,0,0
2022-11-05 12:25:47.473470,0.003308853373572583,0.004413319540850245,0.0004954189803838068,-0.0031904301333333315,-0.010209376426666639,9.80960119623333,53.6,38.1,-132.1,0,0,0
2022-11-05 12:25:47.483991,0.004945099547317267,0.004140611845226131,-0.0015498887367970476,-0.0031904301333333315,-0.005423731226666617,9.79763708323333,53.0,37.4,-130.8,0,0,0
2022-11-05 12:25:47.495146,3.636102608321496e-05,0.00018635025867647786,0.0033588497844370038,0.011166505466666667,-0.0006380860266665955,9.811994018833332,53.300000000000004,38.400000000000006,-131.70000000000002,0,0,0
2022-11-05 12:25:47.505869,-0.0010544697564132408,0.0010044733455488192,0.0033588497844370038,-0.0007976075333333311,-0.005423731226666617,9.79524426063333,53.900000000000006,38.800000000000004,-132.8,0,0,0
2022-11-05 12:25:47.516407,-0.007599454451391977,0.002777073367105561,-0.0035951964539779027,-0.007976075333333332,0.0041475591733333705,9.807208373633332,51.7,38.5,-131.3,0,0,0
2022-11-05 12:25:47.526933,-0.0006454082129770701,0.006458627258031098,-0.000595411802112649,-0.012761720533333333,-0.01260219902666665,9.82156530923333,53.1,38.2,-132.3,0,0,0
2022-11-05 12:25:47.537434,0.0011271918085796711,-0.0025407266975646624,-0.0015498887367970476,0.013559328066666668,-0.0006380860266665955,9.80960119623333,53.800000000000004,38.900000000000006,-132.4,0,0,0
2022-11-05 12:25:47.547972,-0.003645192864842324,-0.002949788241000833,-0.003049781062729675,-0.0031904301333333315,0.008933204373333392,9.81677966403333,53.400000000000006,37.5,-131.0,0,0,0
2022-11-05 12:25:47.558503,0.0015362533520158418,0.0005954118021126494,-0.0027770733671055614,-0.007976075333333332,0.011326026973333403,9.823958131833331,52.6,38.300000000000004,-131.70000000000002,0,0,0
2022-11-05 12:25:47.569038,0.003308853373572583,-0.004995095958181688,0.002131665154128491,0.0015952150666666692,0.0041475591733333705,9.82635095443333,52.5,38.2,-132.8,0,0,0
2022-11-05 12:25:47.579544,0.002218022591076127,-0.0026770805453767196,-0.0007317656499247062,-0.0007976075333333311,-0.01260219902666665,9.776101679833332,54.1,38.0,-133.4,0,0,0
2022-11-05 12:25:47.590116,0.0018089610476399562,0.002777073367105561,-0.004004257997414074,-0.01036889793333333,-0.0030309086266666063,9.804815551033329,53.0,39.0,-133.8,0,0,0
2022-11-05 12:25:47.600642,0.002899791830136412,0.002777073367105561,-0.000595411802112649,-0.01994018833333333,-0.024566312026666648,9.819172486633331,53.6,38.5,-133.4,0,0,0
2022-11-05 12:25:47.611168,-0.0021453005389096965,-0.002404372849752605,8.635743694763607e-05,0.00398803766666667,-0.022173489426666637,9.82156530923333,52.900000000000006,38.800000000000004,-133.70000000000002,0,0,0
2022-11-05 12:25:47.621667,-0.00037270051735295573,-0.004176972871309346,0.000631772828195864,-0.0007976075333333311,-0.0030309086266666063,9.80960119623333,52.2,38.800000000000004,-133.1,0,0,0
2022-11-05 12:25:47.632175,0.001672607199827899,-0.002813434393188776,0.003904265175685232,-0.01036889793333333,-0.0006380860266665955,9.80242272843333,54.2,38.1,-132.6,0,0,0
2022-11-05 12:25:47.642658,-0.003917900560466438,-8.63574369476365e-05,-0.0014135348889849912,-0.0007976075333333311,0.011326026973333403,9.80960119623333,52.5,38.7,-133.3,0,0,0
2022-11-05 12:25:47.653200,-0.0009181159086011836,0.0025043656714814466,-0.0034588426061658455,-0.017547365733333327,-0.0030309086266666063,9.788065792833331,53.6,38.0,-131.9,0,0,0
2022-11-05 12:25:47.663964,0.0015362533520158418,-0.0015862497628802638,-0.001958950280233219,-0.03429712393333333,-0.0006380860266665955,9.807208373633332,53.400000000000006,38.1,-131.9,0,0,0
2022-11-05 12:25:47.674477,3.636102608321496e-05,-0.005676865197241973,-0.0068676888014672696,-0.0031904301333333315,-0.010209376426666639,9.819172486633331,54.2,39.1,-132.5,0,0,0
2022-11-05 12:25:47.685010,-0.00473602364733878,-0.0030861420888128903,-0.0003227041064885346,-0.012761720533333333,0.0017547365733333598,9.80242272843333,52.400000000000006,38.800000000000004,-133.1,0,0,0
2022-11-05 12:25:47.696193,-0.008281223690452262,-0.0011771882194440923,-0.003867904149602017,-0.017547365733333327,-0.0030309086266666063,9.80960119623333,53.300000000000004,37.300000000000004,-132.3,0,0,0
2022-11-05 12:25:47.706708,0.0015362533520158418,-0.004313326719121403,-0.005913211866782871,-0.0007976075333333311,-0.0030309086266666063,9.80002990583333,52.800000000000004,39.1,-131.9,0,0,0
2022-11-05 12:25:47.717217,0.004945099547317267,-0.002949788241000833,-0.0027770733671055614,-0.0031904301333333315,-0.010209376426666639,9.80002990583333,52.7,38.2,-132.5,0,0,0
2022-11-05 12:25:47.727705,-0.002554362082345868,-0.010040188327227797,-0.0015498887367970476,-0.007976075333333332,0.008933204373333392,9.804815551033329,53.0,38.5,-133.0,0,0,0
2022-11-05 12:25:47.738227,0.000990837960767614,-0.0045860344147455176,0.0014498959150682058,-0.007976075333333332,0.016111672173333313,9.804815551033329,52.900000000000006,38.2,-132.4,0,0,0
2022-11-05 12:25:47.748718,0.0015362533520158418,-0.0019953113063164336,0.001313542067256149,-0.029511478733333325,-0.010209376426666639,9.78567297023333,53.5,37.800000000000004,-131.8,0,0,0
2022-11-05 12:25:47.759240,-0.00037270051735295573,-0.002131665154128491,-0.001958950280233219,-0.01036889793333333,-0.01260219902666665,9.81677966403333,52.800000000000004,38.800000000000004,-132.8,0,0,0
2022-11-05 12:25:47.769726,0.0011271918085796711,-0.0045860344147455176,-0.0068676888014672696,-0.0031904301333333315,-0.010209376426666639,9.81677966403333,52.900000000000006,37.7,-131.4,0,0,0
2022-11-05 12:25:47.780216,0.0003090687217073289,0.004413319540850245,-0.003186134910541732,-0.0007976075333333311,0.0017547365733333598,9.82156530923333,52.7,38.2,-133.5,0,0,0
2022-11-05 12:25:47.790707,0.001399899504203785,0.00032270410648853505,0.004313326719121403,-0.012761720533333333,-0.0030309086266666063,9.83113659963333,52.900000000000006,37.800000000000004,-130.0,0,0,0
2022-11-05 12:25:47.801266,-0.0035088390170302667,-0.0011771882194440923,0.002949788241000833,-0.01036889793333333,0.0041475591733333705,9.807208373633332,53.400000000000006,38.0,-132.1,0,0,0
2022-11-05 12:25:47.811766,-0.00473602364733878,-0.002949788241000833,0.0017226036106923201,0.00638086026666667,-0.005423731226666617,9.79763708323333,52.7,36.9,-132.20000000000002,0,0,0
2022-11-05 12:25:47.822254,-0.002418008234533811,0.00018635025867647786,0.001313542067256149,-0.0031904301333333315,-0.01260219902666665,9.807208373633332,53.0,37.6,-132.20000000000002,0,0,0
2022-11-05 12:25:47.832732,0.003308853373572583,0.0035951964539779023,-0.0007317656499247062,-0.012761720533333333,-0.0030309086266666063,9.80242272843333,51.6,37.6,-132.70000000000002,0,0,0
2022-11-05 12:25:47.843254,0.001399899504203785,0.0010044733455488192,0.0014498959150682058,-0.012761720533333333,0.0041475591733333705,9.823958131833331,53.300000000000004,38.900000000000006,-132.6,0,0,0
2022-11-05 12:25:47.853794,-0.0013271774520373552,-0.0003590651325717509,0.0009044805238199779,0.00398803766666667,-0.010209376426666639,9.811994018833332,53.1,38.300000000000004,-132.70000000000002,0,0,0
2022-11-05 12:25:47.864289,0.001399899504203785,-0.0004954189803838081,-0.0014135348889849912,-0.01994018833333333,-0.010209376426666639,9.83592224483333,52.800000000000004,38.1,-132.1,0,0,0
2022-11-05 12:25:47.874806,0.00208166874326407,0.0038679041496020167,0.0009044805238199779,-0.0055832527333333284,-0.0030309086266666063,9.81677966403333,52.800000000000004,38.400000000000006,-132.8,0,0,0
2022-11-05 12:25:47.885294,-0.00023634666954089854,0.0005954118021126494,0.0014498959150682058,-0.007976075333333332,0.0041475591733333705,9.807208373633332,52.800000000000004,38.7,-131.70000000000002,0,0,0
2022-11-05 12:25:47.896400,-0.007872162147016092,-0.003495203632249061,0.0009044805238199779,0.00638086026666667,0.008933204373333392,9.79763708323333,52.400000000000006,37.9,-132.8,0,0,0
2022-11-05 12:25:47.906913,-0.008962992929512546,-0.004995095958181688,-0.0007317656499247062,0.00398803766666667,-0.010209376426666639,9.79524426063333,53.5,38.5,-131.9,0,0,0
2022-11-05 12:25:47.917389,-0.0010544697564132408,0.0026407195192935037,-0.0003227041064885346,-0.012761720533333333,-0.005423731226666617,9.80002990583333,52.400000000000006,38.900000000000006,-133.3,0,0,0
2022-11-05 12:25:47.927906,-0.0021453005389096965,-0.0045860344147455176,-0.0003227041064885346,-0.022333010933333328,-0.005423731226666617,9.79285143803333,52.7,39.1,-130.9,0,0,0
2022-11-05 12:25:47.938389,0.0015362533520158418,-0.004995095958181688,-0.0011408271933608769,-0.0031904301333333315,-0.01260219902666665,9.78328014763333,53.0,38.7,-132.3,0,0,0
2022-11-05 12:25:47.948903,0.002899791830136412,-0.002404372849752605,0.0009044805238199779,-0.0055832527333333284,-0.005423731226666617,9.83352942223333,53.0,38.1,-133.5,0,0,0
2022-11-05 12:25:47.959397,-0.005008731342962894,0.0005954118021126494,0.002268019001940548,-0.0055832527333333284,0.0017547365733333598,9.83352942223333,53.400000000000006,37.6,-131.5,0,0,0
2022-11-05 12:25:47.970041,0.003581561069196697,0.0031861349105417325,-0.0003227041064885346,0.008773682866666667,-0.01260219902666665,9.82156530923333,52.900000000000006,38.900000000000006,-133.4,0,0,0
2022-11-05 12:25:47.980540,0.0007181302651435,0.0030497810627296753,0.002540726697564662,-0.0055832527333333284,-0.005423731226666617,9.807208373633332,53.900000000000006,39.2,-132.20000000000002,0,0,0
2022-11-05 12:25:47.991058,-0.009372054472948716,-0.002131665154128491,0.002268019001940548,0.0015952150666666692,0.0017547365733333598,9.811994018833332,53.300000000000004,39.1,-132.3,0,0,0
2022-11-05 12:25:48.001566,-0.003645192864842324,-0.004313326719121403,0.0017226036106923201,-0.007976075333333332,0.008933204373333392,9.807208373633332,51.900000000000006,37.5,-131.9,0,0,0
2022-11-05 12:25:48.012083,-0.0035088390170302667,-0.0013135420672561494,-0.000595411802112649,-0.029511478733333325,-0.0030309086266666063,9.79524426063333,52.1,38.800000000000004,-131.0,0,0,0
2022-11-05 12:25:48.022556,3.636102608321496e-05,0.002777073367105561,0.002131665154128491,-0.0031904301333333315,-0.0006380860266665955,9.79285143803333,53.300000000000004,38.1,-132.4,0,0,0
2022-11-05 12:25:48.033029,-0.003236131321406153,0.0012771810411729336,-0.0022316579758573326,0.015952150666666668,-0.0006380860266665955,9.807208373633332,52.7,37.9,-132.20000000000002,0,0,0
2022-11-05 12:25:48.043504,0.0018089610476399562,0.0005954118021126494,-0.003049781062729675,0.00638086026666667,-0.005423731226666617,9.81438684143333,51.5,39.1,-133.0,0,0,0
2022-11-05 12:25:48.054013,-0.00473602364733878,-0.0009044805238199779,-0.0003227041064885346,-0.0055832527333333284,-0.010209376426666639,9.788065792833331,53.0,38.6,-132.70000000000002,0,0,0
2022-11-05 12:25:48.064494,-0.007054039060143748,0.0016862425846091052,-0.0035951964539779027,-0.012761720533333333,0.006540381773333381,9.80960119623333,53.900000000000006,37.9,-132.3,0,0,0
2022-11-05 12:25:48.074978,-0.0054177928863990655,-0.0026770805453767196,-0.0027770733671055614,-0.017547365733333327,0.016111672173333313,9.807208373633332,53.0,37.9,-132.20000000000002,0,0,0
2022-11-05 12:25:48.085476,-0.004326962103902608,-0.002949788241000833,0.0004954189803838068,0.0015952150666666692,0.008933204373333392,9.81438684143333,53.1,37.4,-132.1,0,0,0
2022-11-05 12:25:48.096630,-0.003917900560466438,-0.0039042651756852325,-0.0010044733455488197,-0.0031904301333333315,0.0041475591733333705,9.80960119623333,53.7,37.300000000000004,-132.1,0,0,0
2022-11-05 12:25:48.107174,-0.007872162147016092,-0.0009044805238199779,-0.004276965693038188,-0.0007976075333333311,0.0017547365733333598,9.81677966403333,53.900000000000006,37.300000000000004,-132.6,0,0,0
2022-11-05 12:25:48.117896,0.0011271918085796711,0.0016862425846091052,-0.004004257997414074,0.0015952150666666692,0.008933204373333392,9.79763708323333,53.6,37.0,-132.20000000000002,0,0,0
2022-11-05 12:25:48.148444,0.0015362533520158418,-0.008267588305671056,0.000631772828195864,-0.01036889793333333,-0.014995021626666605,9.79763708323333,52.5,38.5,-133.0,0,0,0
2022-11-05 12:25:48.158967,0.0015362533520158418,0.004276965693038188,0.0026770805453767187,0.00638086026666667,0.011326026973333403,9.82156530923333,53.800000000000004,38.1,-132.6,0,0,0
2022-11-05 12:25:48.200013,-0.003917900560466438,0.00045905795430059224,-0.004686027236474358,-0.012761720533333333,0.006540381773333381,9.811994018833332,53.0,38.2,-132.6,0,0,0
2022-11-05 12:25:48.210531,0.001399899504203785,-0.004313326719121403,-0.002640719519293504,-0.02711865613333333,-0.017387844226666616,9.823958131833331,53.300000000000004,39.2,-132.4,0,0,0
2022-11-05 12:25:48.221023,0.002218022591076127,0.0025043656714814466,-0.004276965693038188,-0.015154543133333323,-0.007816553826666628,9.811994018833332,52.6,38.7,-132.6,0,0,0
2022-11-05 12:25:48.231502,0.002490730286700241,0.0018225964324211624,-0.001958950280233219,0.00638086026666667,-0.005423731226666617,9.80002990583333,53.6,38.900000000000006,-131.4,0,0,0
2022-11-05 12:25:48.242017,-0.002554362082345868,-0.0013135420672561494,0.001313542067256149,-0.01036889793333333,-0.01260219902666665,9.79763708323333,52.7,38.6,-132.5,0,0,0
2022-11-05 12:25:48.252508,-0.001872592843285583,0.002095304128045275,-0.0011408271933608769,-0.012761720533333333,-0.005423731226666617,9.83831506743333,53.7,37.0,-132.20000000000002,0,0,0
2022-11-05 12:25:48.263025,-0.002554362082345868,0.0026407195192935037,0.0014498959150682058,-0.012761720533333333,-0.01260219902666665,9.804815551033329,54.0,38.800000000000004,-133.70000000000002,0,0,0
2022-11-05 12:25:48.273517,0.000990837960767614,0.0025043656714814466,0.0026770805453767187,-0.015154543133333323,-0.007816553826666628,9.82156530923333,53.2,37.4,-132.8,0,0,0
2022-11-05 12:25:48.284031,-0.001872592843285583,0.0012771810411729336,-0.00236801182366939,-0.0007976075333333311,-0.01260219902666665,9.807208373633332,52.800000000000004,38.0,-133.0,0,0,0
2022-11-05 12:25:48.294526,-0.0006454082129770701,-0.0025407266975646624,-0.0003227041064885346,0.0015952150666666692,-0.010209376426666639,9.79045861543333,52.400000000000006,38.5,-133.70000000000002,0,0,0
2022-11-05 12:25:48.305063,-0.00037270051735295573,-0.004313326719121403,-0.0001863502586764783,-0.0031904301333333315,-0.017387844226666616,9.807208373633332,52.5,38.400000000000006,-131.6,0,0,0
2022-11-05 12:25:48.315560,-0.003099777473594096,-0.0009044805238199779,-0.0015498887367970476,-0.01036889793333333,-0.0006380860266665955,9.81438684143333,51.800000000000004,37.2,-132.20000000000002,0,0,0
2022-11-05 12:25:48.326081,-0.008962992929512546,-0.0004954189803838081,0.0026770805453767187,-0.007976075333333332,-0.010209376426666639,9.804815551033329,52.800000000000004,38.400000000000006,-133.3,0,0,0
2022-11-05 12:25:48.336588,-0.005826854429835235,-0.0045860344147455176,8.635743694763607e-05,-0.0055832527333333284,-0.010209376426666639,9.78328014763333,52.6,37.800000000000004,-133.70000000000002,0,0,0
2022-11-05 12:25:48.347109,-0.00037270051735295573,-0.0039042651756852325,8.635743694763607e-05,-0.0007976075333333311,-0.01260219902666665,9.807208373633332,53.1,38.400000000000006,-132.70000000000002,0,0,0
2022-11-05 12:25:48.358267,0.003172499525760526,0.0018225964324211624,0.0004954189803838068,-0.01036889793333333,0.0232901399733334,9.82156530923333,54.1,37.800000000000004,-133.3,0,0,0
2022-11-05 12:25:48.368770,-0.005008731342962894,0.0038679041496020167,0.001313542067256149,0.00398803766666667,0.008933204373333392,9.80002990583333,52.1,39.300000000000004,-132.20000000000002,0,0,0
2022-11-05 12:25:48.379298,-0.002554362082345868,0.004686027236474358,-0.0022316579758573326,-0.015154543133333323,-0.014995021626666605,9.80960119623333,52.5,38.0,-130.8,0,0,0
2022-11-05 12:25:48.389794,0.00208166874326407,-0.004176972871309346,0.002540726697564662,-0.0007976075333333311,-0.01260219902666665,9.79524426063333,52.900000000000006,37.4,-132.0,0,0,0
2022-11-05 12:25:48.400310,0.00208166874326407,-0.0013135420672561494,-0.0015498887367970476,-0.012761720533333333,-0.017387844226666616,9.78328014763333,53.2,37.4,-131.1,0,0,0
2022-11-05 12:25:48.410829,0.003990622612632868,-0.0051314498059937454,-0.004549673388662301,0.0015952150666666692,-0.01260219902666665,9.807208373633332,52.800000000000004,36.4,-131.1,0,0,0
2022-11-05 12:25:48.421310,0.006035930329813723,-0.0032224959366249474,-0.002504365671481447,-0.007976075333333332,-0.007816553826666628,9.82874377703333,53.5,36.800000000000004,-132.3,0,0,0
2022-11-05 12:25:48.431784,0.0003090687217073289,-0.002131665154128491,0.0009044805238199779,0.013559328066666668,-0.014995021626666605,9.804815551033329,52.5,38.2,-131.6,0,0,0
2022-11-05 12:25:48.442265,0.0011271918085796711,-0.001722603610692321,-0.0001863502586764783,-0.007976075333333332,-0.017387844226666616,9.82635095443333,51.5,36.4,-132.5,0,0,0
2022-11-05 12:25:48.452738,0.002627084134512298,0.0008681194977367621,-0.0010044733455488197,-0.015154543133333323,-0.007816553826666628,9.80960119623333,53.900000000000006,37.7,-131.8,0,0,0
2022-11-05 12:25:48.463242,-0.003236131321406153,-0.0025407266975646624,-0.0034588426061658455,-0.024725833533333325,-0.010209376426666639,9.82635095443333,52.1,38.2,-132.8,0,0,0
2022-11-05 12:25:48.473710,0.0007181302651435,-0.007585819066610771,-0.0034588426061658455,-0.015154543133333323,-0.0006380860266665955,9.79763708323333,52.6,37.6,-131.3,0,0,0
2022-11-05 12:25:48.484185,-0.0014635312998494115,-0.002131665154128491,-0.0010044733455488197,-0.022333010933333328,0.008933204373333392,9.807208373633332,53.7,38.900000000000006,-133.1,0,0,0
2022-11-05 12:25:48.494662,-0.003099777473594096,-0.004313326719121403,-0.000595411802112649,0.011166505466666667,-0.014995021626666605,9.83113659963333,53.2,37.1,-131.4,0,0,0
2022-11-05 12:25:48.505195,0.004945099547317267,-0.0011771882194440923,-0.001958950280233219,-0.015154543133333323,-0.017387844226666616,9.80960119623333,53.5,37.7,-132.0,0,0,0
2022-11-05 12:25:48.515824,-0.0028270697779699816,0.0010044733455488192,-0.0007317656499247062,-0.007976075333333332,-0.005423731226666617,9.81677966403333,53.2,37.1,-131.5,0,0,0
2022-11-05 12:25:48.526345,-0.00609956212545935,-0.004995095958181688,0.002268019001940548,-0.0055832527333333284,0.0017547365733333598,9.80242272843333,53.400000000000006,38.7,-132.6,0,0,0
2022-11-05 12:25:48.536851,0.00658134572106195,-0.0014498959150682066,-4.999641086442111e-05,-0.022333010933333328,-0.01260219902666665,9.80002990583333,53.0,38.7,-131.70000000000002,0,0,0
2022-11-05 12:25:48.547394,0.00208166874326407,-0.0009044805238199779,0.000631772828195864,-0.007976075333333332,-0.005423731226666617,9.811994018833332,53.1,37.9,-132.6,0,0,0
2022-11-05 12:25:48.558595,-0.007054039060143748,-0.006358634436302258,0.000631772828195864,-0.02711865613333333,0.0041475591733333705,9.80242272843333,52.5,39.0,-132.20000000000002,0,0,0
2022-11-05 12:25:48.569150,0.0003090687217073289,0.004004257997414074,0.002540726697564662,-0.0031904301333333315,-0.019780666826666626,9.80002990583333,52.900000000000006,37.1,-132.3,0,0,0
2022-11-05 12:25:48.579634,0.0007181302651435,0.0025043656714814466,0.002540726697564662,-0.0007976075333333311,-0.0006380860266665955,9.807208373633332,52.5,37.7,-132.9,0,0,0
2022-11-05 12:25:48.590147,0.000990837960767614,-0.003495203632249061,-0.0010044733455488197,0.008773682866666667,-0.0030309086266666063,9.78328014763333,53.0,37.0,-132.1,0,0,0
2022-11-05 12:25:48.600658,0.003172499525760526,-0.002131665154128491,0.0018589574585043769,0.0015952150666666692,0.0041475591733333705,9.80002990583333,52.400000000000006,38.400000000000006,-131.4,0,0,0
2022-11-05 12:25:48.611182,-0.002554362082345868,0.00018635025867647786,-0.0001863502586764783,-0.0031904301333333315,-0.005423731226666617,9.79524426063333,53.0,38.0,-132.4,0,0,0
2022-11-05 12:25:48.621663,0.004945099547317267,-0.0014498959150682066,-0.004413319540850244,-0.0007976075333333311,-0.007816553826666628,9.80242272843333,52.7,38.7,-132.4,0,0,0
2022-11-05 12:25:48.632354,0.005490514938565495,-0.0011771882194440923,-0.001822596432421162,0.00398803766666667,-0.007816553826666628,9.811994018833332,53.5,38.2,-131.8,0,0,0
2022-11-05 12:25:48.642887,-0.00473602364733878,-0.002131665154128491,-0.002640719519293504,0.00638086026666667,-0.0030309086266666063,9.81438684143333,53.2,38.7,-132.70000000000002,0,0,0
2022-11-05 12:25:48.653378,-0.0006454082129770701,0.002231657975857332,0.0009044805238199779,0.00638086026666667,-0.005423731226666617,9.840707890033329,53.0,38.1,-133.8,0,0,0
2022-11-05 12:25:48.663866,-0.0009181159086011836,0.007685811888339611,0.001313542067256149,-0.01036889793333333,-0.007816553826666628,9.80002990583333,53.6,37.0,-133.20000000000002,0,0,0
2022-11-05 12:25:48.674369,-0.0021453005389096965,0.0012771810411729336,-0.0034588426061658455,0.00398803766666667,-0.0030309086266666063,9.79763708323333,52.800000000000004,37.9,-131.70000000000002,0,0,0
2022-11-05 12:25:48.684892,0.00208166874326407,-0.0003590651325717509,-0.001822596432421162,-0.0031904301333333315,-0.005423731226666617,9.79763708323333,52.900000000000006,37.7,-132.20000000000002,0,0,0
2022-11-05 12:25:48.695377,-0.0028270697779699816,-0.0011771882194440923,-0.0034588426061658455,-0.012761720533333333,-0.005423731226666617,9.81438684143333,52.900000000000006,37.9,-131.6,0,0,0
2022-11-05 12:25:48.705910,-0.006508623668895521,-0.0037679113278731753,-0.0011408271933608769,-0.007976075333333332,-0.010209376426666639,9.788065792833331,53.1,38.300000000000004,-132.20000000000002,0,0,0
2022-11-05 12:25:48.716401,0.00208166874326407,4.999641086442068e-05,0.002949788241000833,-0.012761720533333333,-0.005423731226666617,9.78328014763333,52.6,38.0,-132.20000000000002,0,0,0
2022-11-05 12:25:48.726920,0.006854053416686065,0.001549888736797048,-0.0011408271933608769,-0.01036889793333333,0.008933204373333392,9.819172486633331,53.800000000000004,38.900000000000006,-132.70000000000002,0,0,0
2022-11-05 12:25:48.737402,-0.0035088390170302667,0.002777073367105561,-0.003049781062729675,-0.0031904301333333315,0.013718849573333414,9.804815551033329,53.0,38.900000000000006,-131.3,0,0,0
2022-11-05 12:25:48.747919,-0.004190608256090553,-0.0030861420888128903,0.001040834371632035,-0.012761720533333333,-0.010209376426666639,9.82156530923333,52.400000000000006,37.9,-133.20000000000002,0,0,0
2022-11-05 12:25:48.759004,0.00794488419918252,0.001958950280233218,-0.0007317656499247062,0.00398803766666667,-0.007816553826666628,9.82874377703333,51.900000000000006,39.0,-131.9,0,0,0
2022-11-05 12:25:48.769505,0.0061722841776257805,0.004549673388662301,0.0009044805238199779,-0.007976075333333332,0.0041475591733333705,9.80960119623333,52.1,39.0,-132.5,0,0,0
2022-11-05 12:25:48.780001,0.003308853373572583,-0.0015862497628802638,-0.0010044733455488197,-0.015154543133333323,-0.007816553826666628,9.79524426063333,53.6,37.800000000000004,-132.20000000000002,0,0,0
2022-11-05 12:25:48.790499,0.003581561069196697,-0.005267803653805802,0.002813434393188776,0.0015952150666666692,-0.005423731226666617,9.80002990583333,53.800000000000004,38.900000000000006,-133.1,0,0,0
2022-11-05 12:25:48.801038,-0.003645192864842324,-0.0039042651756852325,-0.0007317656499247062,-0.0055832527333333284,-0.0006380860266665955,9.79524426063333,52.2,38.2,-132.9,0,0,0
2022-11-05 12:25:48.811560,-0.00473602364733878,4.999641086442068e-05,-0.0003227041064885346,-0.03908276913333333,0.011326026973333403,9.80002990583333,52.900000000000006,37.1,-132.9,0,0,0
2022-11-05 12:25:48.822082,0.0011271918085796711,-0.003495203632249061,-0.002640719519293504,0.00638086026666667,0.008933204373333392,9.81438684143333,52.800000000000004,38.900000000000006,-132.6,0,0,0
2022-11-05 12:25:48.832568,-0.008144869842640203,-8.63574369476365e-05,0.00022271128475969282,-0.012761720533333333,-0.005423731226666617,9.79763708323333,52.5,38.6,-132.3,0,0,0
2022-11-05 12:25:48.843079,-0.0014635312998494115,-0.002949788241000833,-0.0003227041064885346,-0.012761720533333333,-0.0030309086266666063,9.78567297023333,53.6,38.5,-131.4,0,0,0
2022-11-05 12:25:48.853556,0.0004454225695193861,-8.63574369476365e-05,0.0014498959150682058,-0.0055832527333333284,-0.024566312026666648,9.80002990583333,52.900000000000006,38.2,-133.1,0,0,0
2022-11-05 12:25:48.864068,-0.003645192864842324,-0.0026770805453767196,0.002131665154128491,-0.0007976075333333311,-0.0030309086266666063,9.83113659963333,52.1,37.6,-132.8,0,0,0
2022-11-05 12:25:48.874554,-0.00746310060357992,0.0005954118021126494,-0.0022316579758573326,0.008773682866666667,0.008933204373333392,9.81438684143333,52.6,38.7,-133.8,0,0,0
2022-11-05 12:25:48.885016,-0.002554362082345868,-0.001040834371632035,0.0044496805669334595,-0.01994018833333333,0.0041475591733333705,9.80242272843333,52.800000000000004,37.6,-132.6,0,0,0
2022-11-05 12:25:48.895491,-0.001190823604225298,0.006185919562406987,0.00022271128475969282,0.0015952150666666692,-0.01260219902666665,9.80242272843333,53.300000000000004,37.800000000000004,-132.20000000000002,0,0,0
2022-11-05 12:25:48.906058,-0.0035088390170302667,-0.0064949882841143156,-0.0011408271933608769,-0.007976075333333332,0.006540381773333381,9.80242272843333,53.5,38.1,-132.8,0,0,0
2022-11-05 12:25:48.916532,3.636102608321496e-05,0.002095304128045275,-0.0011408271933608769,0.0015952150666666692,-0.007816553826666628,9.807208373633332,51.5,37.800000000000004,-132.4,0,0,0
2022-11-05 12:25:48.927050,-0.008281223690452262,-8.63574369476365e-05,0.00022271128475969282,-0.012761720533333333,0.0017547365733333598,9.79763708323333,52.2,38.300000000000004,-131.0,0,0,0
2022-11-05 12:25:48.937529,-0.003781546712654381,-0.002131665154128491,0.004858742110369631,0.00398803766666667,0.0041475591733333705,9.81677966403333,52.900000000000006,37.5,-132.1,0,0,0
2022-11-05 12:25:48.948027,-0.0014635312998494115,-0.0030861420888128903,0.0018589574585043769,-0.022333010933333328,0.013718849573333414,9.81438684143333,52.900000000000006,37.800000000000004,-132.8,0,0,0
2022-11-05 12:25:48.958515,-0.0028270697779699816,-0.0026770805453767196,-0.000595411802112649,-0.017547365733333327,-0.014995021626666605,9.81677966403333,51.2,36.9,-134.3,0,0,0
2022-11-05 12:25:48.969891,0.004945099547317267,-0.002949788241000833,-0.002504365671481447,0.008773682866666667,0.0017547365733333598,9.81677966403333,53.400000000000006,37.9,-132.6,0,0,0
2022-11-05 12:25:48.980394,0.008899361133866919,0.001958950280233218,-0.0003227041064885346,0.0015952150666666692,0.0041475591733333705,9.79524426063333,52.6,37.5,-133.20000000000002,0,0,0
2022-11-05 12:25:48.990912,0.005899576482001666,0.002095304128045275,0.004722388262557574,0.0015952150666666692,-0.005423731226666617,9.83113659963333,52.0,38.2,-132.5,0,0,0
2022-11-05 12:25:49.001403,0.005354161090753437,-0.005404157501617859,-0.0008681194977367634,-0.01994018833333333,-0.0030309086266666063,9.807208373633332,53.0,37.7,-132.0,0,0,0
2022-11-05 12:25:49.011947,3.636102608321496e-05,-0.0025407266975646624,-0.0007317656499247062,-0.015154543133333323,-0.01260219902666665,9.776101679833332,52.400000000000006,38.800000000000004,-133.1,0,0,0
2022-11-05 12:25:49.022455,-0.0007817620607891273,-0.0025407266975646624,-0.0022316579758573326,-0.017547365733333327,0.0041475591733333705,9.79763708323333,52.800000000000004,38.5,-133.0,0,0,0
2022-11-05 12:25:49.032981,0.006854053416686065,0.00032270410648853505,0.0007681266760079211,-0.012761720533333333,-0.010209376426666639,9.80242272843333,52.1,38.5,-132.4,0,0,0
2022-11-05 12:25:49.043470,-0.0013271774520373552,0.002777073367105561,8.635743694763607e-05,-0.007976075333333332,-0.010209376426666639,9.823958131833331,53.0,39.0,-131.9,0,0,0
2022-11-05 12:25:49.053994,-0.0054177928863990655,0.006049565714594928,0.00022271128475969282,-0.012761720533333333,-0.014995021626666605,9.79285143803333,53.0,38.300000000000004,-132.8,0,0,0
2022-11-05 12:25:49.064486,0.003854268764820811,-0.0018589574585043765,-0.00236801182366939,-0.015154543133333323,-0.005423731226666617,9.81677966403333,52.6,39.300000000000004,-133.20000000000002,0,0,0
2022-11-05 12:25:49.074964,0.00658134572106195,0.004004257997414074,-0.0008681194977367634,-0.0055832527333333284,0.008933204373333392,9.80002990583333,53.1,38.5,-133.1,0,0,0
2022-11-05 12:25:49.085704,-0.0017362389954735259,0.0018225964324211624,-0.000595411802112649,0.00638086026666667,-0.0030309086266666063,9.80002990583333,52.7,38.0,-133.70000000000002,0,0,0
2022-11-05 12:25:49.096194,-0.003236131321406153,0.0005954118021126494,0.00022271128475969282,-0.007976075333333332,-0.005423731226666617,9.79763708323333,52.0,38.0,-133.1,0,0,0
2022-11-05 12:25:49.106666,-0.0028270697779699816,-0.0007681266760079207,-0.0007317656499247062,-0.007976075333333332,0.0017547365733333598,9.804815551033329,53.800000000000004,37.4,-133.70000000000002,0,0,0
2022-11-05 12:25:49.117205,0.0004454225695193861,0.002095304128045275,0.001313542067256149,-0.01036889793333333,-0.007816553826666628,9.807208373633332,52.2,37.7,-132.4,0,0,0
2022-11-05 12:25:49.147365,3.636102608321496e-05,-8.63574369476365e-05,-0.0027770733671055614,-0.007976075333333332,0.018504494773333324,9.79763708323333,51.800000000000004,38.1,-134.1,0,0,0
2022-11-05 12:25:49.157947,-0.0006454082129770701,-0.005676865197241973,-0.0007317656499247062,-0.0055832527333333284,0.018504494773333324,9.79763708323333,51.5,37.7,-132.4,0,0,0
2022-11-05 12:25:49.198925,-0.008690285233888432,0.003458842606165845,-0.0001863502586764783,-0.012761720533333333,0.008933204373333392,9.811994018833332,53.300000000000004,39.0,-132.0,0,0,0
2022-11-05 12:25:49.209498,0.003581561069196697,0.0031861349105417325,-0.002640719519293504,0.011166505466666667,-0.01260219902666665,9.776101679833332,53.2,37.7,-132.5,0,0,0
2022-11-05 12:25:49.220813,-0.007599454451391977,-0.003495203632249061,0.000631772828195864,0.0015952150666666692,-0.0030309086266666063,9.80960119623333,52.800000000000004,38.300000000000004,-132.0,0,0,0
2022-11-05 12:25:49.231394,-0.004463315951714665,0.005231442627722587,0.003904265175685232,-0.012761720533333333,-0.0006380860266665955,9.81677966403333,54.2,38.7,-132.0,0,0,0
2022-11-05 12:25:49.241942,-0.011417362190129572,-0.006085926740678144,-0.000595411802112649,-0.007976075333333332,-0.010209376426666639,9.807208373633332,52.0,38.300000000000004,-130.0,0,0,0
2022-11-05 12:25:49.252445,-0.008690285233888432,-0.008131234457858998,-0.003049781062729675,0.00638086026666667,-0.007816553826666628,9.804815551033329,53.1,38.2,-132.70000000000002,0,0,0
2022-11-05 12:25:49.262948,-0.00473602364733878,-0.0013135420672561494,-0.0034588426061658455,-0.0031904301333333315,-0.010209376426666639,9.80002990583333,52.7,38.0,-132.20000000000002,0,0,0
2022-11-05 12:25:49.273435,-0.001872592843285583,0.002095304128045275,-0.003049781062729675,-0.015154543133333323,-0.014995021626666605,9.811994018833332,52.900000000000006,38.7,-132.9,0,0,0
2022-11-05 12:25:49.283956,-0.00037270051735295573,-0.0009044805238199779,-0.0014135348889849912,-0.0007976075333333311,-0.010209376426666639,9.80002990583333,52.7,38.1,-131.8,0,0,0
2022-11-05 12:25:49.294444,-0.003099777473594096,-0.0009044805238199779,0.001313542067256149,-0.0031904301333333315,-0.0030309086266666063,9.807208373633332,53.300000000000004,38.300000000000004,-132.5,0,0,0
2022-11-05 12:25:49.305010,0.00017271487389527215,0.0074131041927155,0.004858742110369631,-0.0031904301333333315,-0.0030309086266666063,9.819172486633331,52.7,38.5,-131.9,0,0,0
2022-11-05 12:25:49.315528,-0.0010544697564132408,0.004276965693038188,0.00022271128475969282,-0.02711865613333333,0.006540381773333381,9.81677966403333,53.1,38.2,-132.0,0,0,0
2022-11-05 12:25:49.326032,-0.0054177928863990655,-0.001722603610692321,0.002540726697564662,-0.007976075333333332,0.0041475591733333705,9.807208373633332,52.0,38.400000000000006,-130.9,0,0,0
2022-11-05 12:25:49.336514,-0.0007817620607891273,4.999641086442068e-05,8.635743694763607e-05,-0.015154543133333323,-0.0006380860266665955,9.807208373633332,51.7,38.400000000000006,-132.3,0,0,0
2022-11-05 12:25:49.347044,-0.0017362389954735259,-0.006767695979738429,0.001313542067256149,-0.012761720533333333,-0.0006380860266665955,9.819172486633331,52.400000000000006,37.1,-132.4,0,0,0
